#time,accel_x,accel_y,accel_z
41.334927,57.427742,325.423874,-9896.714274
41.337477,114.855485,248.853550,-9858.429112
41.340027,-19.142581,363.709035,-9839.286531
41.342577,306.281293,325.423874,-9896.714274
41.345127,-153.140646,382.851616,-9781.858789
41.347677,-76.570323,306.281293,-9954.142016
41.350228,-191.425808,363.709035,-9839.286531
41.352778,478.564520,574.277424,-9724.431046
41.355328,-401.994197,248.853550,-9801.001370
41.357878,1588.834206,1091.127106,-9513.862658
41.360428,0.000000,746.560651,-10241.280728
41.362978,2067.398726,823.130974,-9934.999435
41.365528,-1971.685822,1856.830338,-9705.288466
41.368078,803.988394,1454.836141,-9609.575562
41.370628,497.707101,918.843878,-9762.716208
41.373178,995.414202,401.994197,-9896.714274
41.375728,1646.261949,1244.267752,-9724.431046
41.378281,-1837.687757,1052.841944,-10260.423309
41.380834,-191.425808,1359.123237,-9513.862658
41.383387,1052.841944,2067.398726,-9399.007173
41.385940,-306.281293,-172.283227,-10317.851051
41.388493,-1205.982590,-995.414202,-10470.991698
41.391045,-823.130974,650.847747,-8882.157491
41.393598,2086.541307,1990.828403,-9724.431046
41.396151,421.136778,880.558717,-10719.845248
41.398704,-2201.396792,-1741.974853,-10088.140082
41.401257,-2928.814862,191.425808,-8748.159426
41.403810,689.132909,1971.685822,-9877.571693
41.406363,516.849682,440.279358,-10088.140082
41.408916,-421.136778,191.425808,-9877.571693
41.411469,-2297.109696,-172.283227,-10068.997501
41.414022,612.562586,995.414202,-9858.429112
41.416575,1033.699363,-114.855485,-9724.431046
41.419128,555.134843,-19.142581,-9934.999435
41.421681,-19.142581,133.998066,-10451.849117
41.424234,-363.709035,937.986459,-9207.581365
41.426786,-842.273555,-287.138712,-9781.858789
41.429339,-267.996131,1129.412267,-9437.292334
41.431892,-344.566454,-267.996131,-10088.140082
41.434445,0.000000,823.130974,-9360.722011
41.436998,-593.420005,-1301.695494,-10585.847182
41.439551,-1531.406464,-650.847747,-9992.427178
41.442104,-593.420005,38.285162,-9399.007173
41.444657,229.710970,-957.129040,-10126.425243
41.447210,497.707101,1014.556782,-10049.854920
41.449763,650.847747,440.279358,-10088.140082
41.452316,689.132909,-803.988394,-9858.429112
41.454869,-1531.406464,114.855485,-10202.995566
41.457422,-2258.824534,-19.142581,-9839.286531
41.459975,1646.261949,1856.830338,-8671.589102
41.462527,-2431.107762,708.275490,-11102.696864
41.465080,3560.520029,1244.267752,-9667.003304
41.467633,-1148.554848,-3349.951640,-9839.286531
41.470186,-4479.363907,765.703232,-9303.294269
41.472739,3809.373579,5551.348432,-9399.007173
41.475292,-4058.227130,-2507.678085,-12863.814298
41.477845,10336.993632,3215.953574,-7159.325219
41.480398,-5934.200048,-325.423874,-12174.681389
41.482951,-3158.525832,650.847747,-9628.718142
41.485503,5111.069074,4230.510357,-7925.028451
41.488056,-1799.402595,-363.709035,-12021.540742
41.490609,7637.889739,1205.982590,-9322.436850
41.493162,-4230.510357,459.421939,-9896.714274
41.495715,95.712904,306.281293,-10164.710405
41.498268,4709.074877,1186.840010,-9628.718142
41.500820,-1761.117434,574.277424,-10164.710405
41.503373,880.558717,2411.965181,-8997.012976
41.505926,-1914.258080,-1014.556782,-10911.271056
41.508479,1263.410333,1741.974853,-9322.436850
41.511032,2660.818731,1244.267752,-10126.425243
41.513584,-1186.840010,1129.412267,-10145.567824
41.516137,746.560651,248.853550,-10068.997501
41.518690,38.285162,401.994197,-9781.858789
41.521243,957.129040,421.136778,-9877.571693
41.523796,842.273555,555.134843,-9954.142016
41.526349,38.285162,803.988394,-9954.142016
41.528901,-210.568389,306.281293,-10030.712339
41.531454,861.416136,669.990328,-9743.573627
41.534007,1167.697429,880.558717,-9571.290400
41.536560,-76.570323,1952.543242,-9475.577496
41.539113,995.414202,1473.978722,-10145.567824
41.541665,172.283227,1512.263883,-9801.001370
41.544218,76.570323,95.712904,-9915.856854
41.546771,1454.836141,593.420005,-9494.720077
41.549324,918.843878,1110.269686,-10222.138147
41.551877,-363.709035,1359.123237,-9743.573627
41.554430,1014.556782,1397.408398,-9647.860723
41.556982,-459.421939,-248.853550,-10604.989763
41.559535,1569.691626,880.558717,-9973.284597
41.562088,1454.836141,1493.121302,-9667.003304
41.564641,229.710970,1684.547110,-9820.143950
41.567194,2469.392923,2488.535504,-10643.274925
41.569746,-3445.664544,-1129.412267,-9188.438784
41.572299,-937.986459,-1339.980656,-10585.847182
41.574852,4383.651003,2565.105827,-9341.579430
41.577405,-3158.525832,-1473.978722,-12040.683323
41.579958,4192.225195,4766.502619,-7503.891674
41.582512,-6451.049730,-3464.807125,-10815.558152
41.585067,-229.710970,76.570323,-9494.720077
41.587622,3713.660675,2679.961312,-9437.292334
41.590176,-2354.537438,-957.129040,-11715.259450
41.592731,2947.957443,3158.525832,-8441.878133
41.595286,-3809.373579,-1627.119368,-10892.128475
41.597840,-382.851616,574.277424,-9016.155557
41.600395,1799.402595,1205.982590,-9992.427178
41.602950,-2450.250342,880.558717,-10547.562021
41.605504,842.273555,-306.281293,-9877.571693
41.608059,-2469.392923,19.142581,-9360.722011
41.610614,1167.697429,-555.134843,-10700.702667
41.613168,-210.568389,1397.408398,-9628.718142
41.615723,-133.998066,-114.855485,-10164.710405
41.618278,440.279358,459.421939,-9686.145885
41.620832,-593.420005,287.138712,-10317.851051
41.623387,421.136778,287.138712,-9590.432981
41.625942,-937.986459,306.281293,-9762.716208
41.628496,-210.568389,535.992262,-9992.427178
41.631051,-593.420005,191.425808,-9743.573627
41.633606,-918.843878,-1148.554848,-9801.001370
41.636160,-650.847747,0.000000,-9552.147819
41.638715,-535.992262,-267.996131,-10624.132344
41.641270,459.421939,784.845813,-9973.284597
41.643824,-95.712904,344.566454,-9667.003304
41.646379,440.279358,133.998066,-9973.284597
41.648934,-957.129040,229.710970,-10451.849117
41.651488,-3101.098090,516.849682,-10164.710405
41.654043,2029.113565,1607.976787,-8901.300072
41.656598,-1761.117434,440.279358,-10566.704602
41.659152,3483.949706,1110.269686,-9188.438784
41.661707,-2641.676150,-3503.092286,-10356.136213
41.664262,-3024.527766,1378.265818,-8748.159426
41.666816,6757.331022,5225.924558,-7618.747158
41.669371,-2833.101958,-267.996131,-13036.097525
41.671926,9016.155557,1473.978722,-8212.167163
41.674480,-5838.487144,-918.843878,-11045.269122
41.677035,-3062.812928,1473.978722,-9188.438784
41.679590,4536.791650,3349.951640,-8365.307810
41.682144,-1320.838075,-210.568389,-11523.833642
41.684699,3905.086483,861.416136,-9858.429112
41.687255,-2852.244539,-363.709035,-10470.991698
41.689810,1569.691626,2737.389054,-9513.862658
41.692365,3158.525832,823.130974,-10738.987829
41.694920,-708.275490,1071.984525,-10126.425243
41.697475,172.283227,1493.121302,-9035.298138
41.700030,-1320.838075,-325.423874,-10528.419440
41.702585,2124.826469,1071.984525,-9667.003304
41.705140,76.570323,650.847747,-9896.714274
41.707696,248.853550,497.707101,-9762.716208
41.710251,-803.988394,708.275490,-9437.292334
41.712806,191.425808,325.423874,-10126.425243
41.715361,0.000000,1780.260014,-9456.434915
41.717916,650.847747,-57.427742,-10317.851051
41.720471,95.712904,1339.980656,-9743.573627
41.723026,-210.568389,421.136778,-9896.714274
41.725581,1225.125171,746.560651,-9781.858789
41.728137,1454.836141,2411.965181,-9781.858789
41.730692,153.140646,1493.121302,-10490.134278
41.733247,1244.267752,1167.697429,-9609.575562
41.735802,535.992262,516.849682,-9915.856854
41.738357,1607.976787,727.418070,-9954.142016
41.740912,133.998066,1071.984525,-10317.851051
41.743467,-1359.123237,1263.410333,-9934.999435
41.746022,937.986459,746.560651,-9341.579430
41.748577,-421.136778,-172.283227,-10336.993632
41.751133,-708.275490,1875.972918,-9743.573627
41.753688,5436.492947,1550.549045,-9992.427178
41.756243,-3617.947771,650.847747,-10853.843314
41.758798,4651.647134,2316.252277,-8595.018779
41.761353,-8384.450390,-3407.379382,-10892.128475
41.763908,2086.541307,-555.134843,-8977.870395
41.766463,210.568389,803.988394,-11102.696864
41.769018,2124.826469,210.568389,-10145.567824
41.771574,-1722.832272,2679.961312,-8595.018779
41.774129,-2679.961312,-2737.389054,-11332.407834
41.776684,2507.678085,1512.263883,-9475.577496
41.779239,880.558717,-440.279358,-10126.425243
41.781794,708.275490,2009.970984,-9150.153622
41.784349,95.712904,612.562586,-10107.282662
41.786905,-1301.695494,-727.418070,-10317.851051
41.789462,1148.554848,1205.982590,-9437.292334
41.792018,-516.849682,267.996131,-10183.852986
41.794574,-76.570323,516.849682,-9839.286531
41.797130,-114.855485,-229.710970,-10088.140082
41.799687,-1091.127106,-899.701298,-10317.851051
41.802243,995.414202,746.560651,-9552.147819
41.804799,-708.275490,459.421939,-9724.431046
41.807355,382.851616,1071.984525,-9245.866526
41.809911,-363.709035,-172.283227,-10585.847182
41.812468,363.709035,1301.695494,-9724.431046
41.815024,-555.134843,-401.994197,-9896.714274
41.817580,593.420005,1014.556782,-9628.718142
41.820136,-1282.552914,95.712904,-10451.849117
41.822693,-555.134843,-995.414202,-9628.718142
41.825249,-2009.970984,-880.558717,-9762.716208
41.827805,-1110.269686,516.849682,-10279.565890
41.830361,1339.980656,2124.826469,-9111.868461
41.832918,248.853550,57.427742,-10183.852986
41.835474,-555.134843,-1091.127106,-10624.132344
41.838030,-2947.957443,823.130974,-9552.147819
41.840586,1684.547110,2316.252277,-9169.296203
41.843142,-899.701298,-19.142581,-11006.983960
41.845699,1148.554848,287.138712,-9341.579430
41.848255,-2469.392923,-2909.672282,-9705.288466
41.850811,-2488.535504,1435.693560,-9111.868461
41.853367,3981.656806,4996.213589,-9877.571693
41.855924,-2718.246474,-2086.541307,-12040.683323
41.858480,10260.423309,5053.641331,-7101.897477
41.861036,-6623.332957,-2258.824534,-12059.825904
41.863592,-497.707101,-727.418070,-9245.866526
41.866149,976.271621,4019.941968,-8193.024582
41.868705,-2871.387120,344.566454,-11925.827838
41.871261,7101.897477,1148.554848,-9265.009107
41.873817,-5436.492947,191.425808,-9647.860723
41.876373,1091.127106,708.275490,-9628.718142
41.878930,3330.809059,1856.830338,-9973.284597
41.881486,-784.845813,-1071.984525,-10222.138147
41.884042,689.132909,2660.818731,-8671.589102
41.886598,-1186.840010,421.136778,-10222.138147
41.889154,612.562586,1263.410333,-9647.860723
41.891710,1722.832272,459.421939,-9896.714274
41.894266,-535.992262,1225.125171,-9590.432981
41.896822,1971.685822,880.558717,-10088.140082
41.899378,-1052.841944,363.709035,-9839.286531
41.901934,1378.265818,478.564520,-9973.284597
41.904490,133.998066,1033.699363,-9743.573627
41.907046,1091.127106,363.709035,-10336.993632
41.909602,-248.853550,899.701298,-10107.282662
41.912158,76.570323,1129.412267,-9992.427178
41.914713,2316.252277,3158.525832,-9322.436850
41.917269,-535.992262,497.707101,-10336.993632
41.919825,1435.693560,1091.127106,-9437.292334
41.922381,861.416136,669.990328,-9667.003304
41.924937,-631.705166,727.418070,-10126.425243
41.927493,-612.562586,1971.685822,-9628.718142
41.930049,976.271621,2067.398726,-9609.575562
41.932605,669.990328,-593.420005,-10949.556218
41.935161,-287.138712,1435.693560,-9743.573627
41.937717,5168.496816,2526.820666,-9762.716208
41.940273,-3043.670347,861.416136,-10834.700733
41.942828,5149.354235,3005.385186,-9073.583299
41.945384,-10088.140082,-4728.217458,-11217.552349
41.947940,2086.541307,612.562586,-8078.169098
41.950496,1110.269686,1014.556782,-10949.556218
41.953052,401.994197,918.843878,-10451.849117
41.955608,172.283227,1148.554848,-8690.731683
41.958164,-4249.652938,-3139.383251,-10853.843314
41.960720,1646.261949,1378.265818,-9322.436850
41.963276,1550.549045,440.279358,-9743.573627
41.965832,-191.425808,631.705166,-10298.708470
41.968388,1665.404530,1607.976787,-9762.716208
41.970943,-1799.402595,-1416.550979,-10604.989763
41.973499,1244.267752,1454.836141,-9322.436850
41.976055,689.132909,-19.142581,-10126.425243
41.978611,363.709035,344.566454,-10049.854920
41.981167,-899.701298,-612.562586,-9820.143950
41.983723,650.847747,153.140646,-9877.571693
41.986279,650.847747,612.562586,-10030.712339
41.988835,-153.140646,-708.275490,-10241.280728
41.991392,555.134843,784.845813,-9188.438784
41.993949,-918.843878,-306.281293,-10298.708470
41.996506,-19.142581,899.701298,-9934.999435
41.999063,57.427742,669.990328,-9552.147819
42.001620,-95.712904,612.562586,-10126.425243
42.004177,-1071.984525,38.285162,-10547.562021
42.006734,-995.414202,-842.273555,-9954.142016
42.009291,38.285162,516.849682,-9839.286531
42.011848,363.709035,535.992262,-10241.280728
42.014405,1454.836141,229.710970,-10030.712339
42.016962,-1875.972918,880.558717,-9877.571693
42.019519,-3292.523898,-842.273555,-10164.710405
42.022076,1435.693560,1512.263883,-9016.155557
42.024633,-1627.119368,937.986459,-10432.706536
42.027190,2411.965181,287.138712,-9437.292334
42.029747,-2201.396792,-2737.389054,-9399.007173
42.032304,-2718.246474,1397.408398,-8499.305875
42.034861,4766.502619,5302.494882,-8977.870395
42.037418,-2526.820666,-1244.267752,-12212.966550
42.039975,8958.727814,2871.387120,-7350.751027
42.042532,-7389.036189,-2411.965181,-11504.691061
42.045089,-1627.119368,535.992262,-9131.011042
42.047646,2603.390989,3751.945837,-8212.167163
42.050203,-1722.832272,172.283227,-10968.698798
42.052760,5111.069074,-76.570323,-9762.716208
42.055317,-3713.660675,114.855485,-9973.284597
42.057874,1091.127106,1378.265818,-10202.995566
42.060431,3751.945837,1263.410333,-10681.560086
42.062988,267.996131,593.420005,-10356.136213
42.065545,229.710970,1225.125171,-9284.151688
42.068102,-727.418070,0.000000,-10413.563955
42.070659,2143.969050,918.843878,-9667.003304
42.073216,631.705166,650.847747,-10107.282662
42.075773,-1110.269686,325.423874,-9686.145885
42.078330,1512.263883,650.847747,-9686.145885
42.080887,-133.998066,344.566454,-10164.710405
42.083444,880.558717,1014.556782,-9571.290400
42.086001,-727.418070,229.710970,-10088.140082
42.088558,1512.263883,1646.261949,-9475.577496
42.091115,-382.851616,803.988394,-10164.710405
42.093672,1167.697429,1818.545176,-9820.143950
42.096228,1875.972918,2737.389054,-9399.007173
42.098784,1741.974853,937.986459,-10432.706536
42.101340,-344.566454,478.564520,-10356.136213
42.103897,-38.285162,1225.125171,-9743.573627
42.106453,1473.978722,3273.381317,-9341.579430
42.109009,401.994197,344.566454,-10413.563955
42.111566,-440.279358,382.851616,-9954.142016
42.114122,287.138712,0.000000,-9513.862658
42.116678,2220.539373,2679.961312,-9016.155557
42.119234,861.416136,1397.408398,-11083.554283
42.121791,-3541.377448,-1818.545176,-9494.720077
42.124347,-478.564520,-2603.390989,-10777.272990
42.126903,3771.088418,2660.818731,-8843.872330
42.129460,-401.994197,-1646.261949,-11638.689126
42.132016,2450.250342,4479.363907,-8097.311678
42.134572,-4555.934230,-2124.826469,-11026.126541
42.137128,-2124.826469,-1014.556782,-9590.432981
42.139685,2813.959378,823.130974,-10107.282662
42.142241,-2067.398726,-325.423874,-11389.835576
42.144797,3024.527766,1359.123237,-8633.303941
42.147354,-3311.666478,-1091.127106,-10145.567824
42.149910,-823.130974,-191.425808,-10317.851051
42.152466,1320.838075,918.843878,-9475.577496
42.155022,-2182.254211,-229.710970,-10222.138147
42.157579,1052.841944,708.275490,-9379.864592
42.160135,-937.986459,-689.132909,-10030.712339
42.162691,1684.547110,210.568389,-9954.142016
42.165248,-497.707101,708.275490,-10049.854920
42.167804,-153.140646,325.423874,-10011.569758
42.170360,0.000000,440.279358,-9801.001370
42.172916,382.851616,172.283227,-9762.716208
42.175473,-76.570323,287.138712,-9973.284597
42.178029,440.279358,-172.283227,-9973.284597
42.180585,-1531.406464,-689.132909,-9992.427178
42.183142,-650.847747,76.570323,-9494.720077
42.185698,-191.425808,-172.283227,-9762.716208
42.188254,1818.545176,631.705166,-9839.286531
42.190810,-363.709035,95.712904,-10088.140082
42.193367,-2737.389054,-650.847747,-9973.284597
42.195923,-957.129040,1837.687757,-9073.583299
42.198480,765.703232,497.707101,-10432.706536
42.201036,1301.695494,995.414202,-10260.423309
42.203593,382.851616,-727.418070,-9054.440718
42.206150,-4134.797453,-516.849682,-11619.546546
42.208707,-708.275490,2852.244539,-10317.851051
42.211263,2277.967115,1895.115499,-8154.739421
42.213820,2928.814862,2737.389054,-10317.851051
42.216377,1148.554848,-995.414202,-10758.130410
42.218934,-3885.943902,-555.134843,-10011.569758
42.221490,-3617.947771,4173.082614,-8556.733618
42.224047,459.421939,-784.845813,-11408.978157
42.226604,4785.645200,2201.396792,-9073.583299
42.229161,-1493.121302,1244.267752,-9724.431046
42.231718,-1531.406464,-1282.552914,-10509.276859
42.234274,1895.115499,3656.232933,-8422.735552
42.236831,1895.115499,421.136778,-10624.132344
42.239388,38.285162,287.138712,-10011.569758
42.241945,-497.707101,842.273555,-9552.147819
42.244501,497.707101,918.843878,-10049.854920
42.247058,2182.254211,1588.834206,-10030.712339
42.249615,19.142581,-325.423874,-10738.987829
42.252172,880.558717,1282.552914,-9609.575562
42.254728,114.855485,210.568389,-10260.423309
42.257285,1282.552914,344.566454,-10068.997501
42.259842,-229.710970,689.132909,-10030.712339
42.262399,478.564520,344.566454,-11160.124606
42.264956,478.564520,1378.265818,-9188.438784
42.267512,1301.695494,1493.121302,-9628.718142
42.270069,1205.982590,2086.541307,-9571.290400
42.272626,2201.396792,478.564520,-10336.993632
42.275183,-1454.836141,555.134843,-9781.858789
42.277739,1110.269686,1435.693560,-10126.425243
42.280296,1416.550979,3503.092286,-9571.290400
42.282853,-229.710970,-382.851616,-9915.856854
42.285410,-1186.840010,1703.689691,-9379.864592
42.287966,4575.076811,1722.832272,-9934.999435
42.290523,-4058.227130,1052.841944,-10164.710405
42.293080,5474.778109,2545.963246,-8709.874264
42.295637,-10394.421374,-3637.090352,-10183.852986
42.298193,1741.974853,-803.988394,-8977.870395
42.300749,1971.685822,2967.100024,-9265.009107
42.303305,-382.851616,229.710970,-10987.841379
42.305862,1014.556782,3235.096155,-8078.169098
42.308418,-4957.928427,-3790.230998,-11274.980091
42.310974,746.560651,1799.402595,-9016.155557
42.313530,1914.258080,76.570323,-9973.284597
42.316086,-2105.683888,727.418070,-10509.276859
42.318643,1320.838075,1397.408398,-9131.011042
42.321199,-4307.080680,-2431.107762,-10183.852986
42.323755,1607.976787,1818.545176,-8365.307810
42.326311,-497.707101,-191.425808,-10375.278794
42.328867,-650.847747,153.140646,-10241.280728
42.331424,-133.998066,555.134843,-9303.294269
42.333980,-1473.978722,-421.136778,-9801.001370
42.336536,440.279358,287.138712,-9418.149754
42.339092,-937.986459,918.843878,-9475.577496
42.341648,669.990328,593.420005,-9896.714274
42.344205,-535.992262,1033.699363,-9954.142016
42.346761,267.996131,669.990328,-10126.425243
42.349317,-612.562586,287.138712,-9628.718142
42.351873,-3062.812928,-2201.396792,-10183.852986
42.354430,440.279358,708.275490,-9035.298138
42.356986,-1454.836141,-306.281293,-10298.708470
42.359542,1339.980656,382.851616,-10049.854920
42.362098,-1110.269686,746.560651,-9858.429112
42.364654,-2909.672282,-478.564520,-10030.712339
42.367211,1512.263883,344.566454,-9150.153622
42.369767,-1531.406464,1473.978722,-10509.276859
42.372323,2220.539373,1129.412267,-9494.720077
42.374879,-1971.685822,-3369.094221,-9877.571693
42.377435,-5130.211654,-114.855485,-9207.581365
42.379992,3598.805190,5283.352301,-9226.723946
42.382548,-3062.812928,1014.556782,-11600.403965
42.385104,9934.999435,3292.523898,-7637.889739
42.387660,-5608.776174,-2067.398726,-11715.259450
42.390216,-2316.252277,650.847747,-9169.296203
42.392773,4019.941968,3617.947771,-8633.303941
42.395329,-1818.545176,1646.261949,-11638.689126
42.397885,6393.621987,1493.121302,-9858.429112
42.400441,-3617.947771,880.558717,-10049.854920
42.402998,-593.420005,516.849682,-10298.708470
42.405554,4211.367776,1646.261949,-9341.579430
42.408110,-535.992262,153.140646,-10145.567824
42.410667,1244.267752,1933.400661,-9590.432981
42.413223,-957.129040,-669.990328,-10834.700733
42.415779,421.136778,1091.127106,-9169.296203
42.418336,1473.978722,1741.974853,-9724.431046
42.420892,-669.990328,382.851616,-10470.991698
42.423448,1703.689691,267.996131,-10088.140082
42.426005,-267.996131,899.701298,-10356.136213
42.428561,880.558717,95.712904,-10164.710405
42.431117,363.709035,746.560651,-9437.292334
42.433674,803.988394,1665.404530,-9494.720077
42.436230,1301.695494,1167.697429,-10317.851051
42.438786,1761.117434,1359.123237,-9705.288466
42.441343,191.425808,421.136778,-9686.145885
42.443899,-267.996131,976.271621,-9686.145885
42.446455,1684.547110,1627.119368,-9839.286531
42.449012,459.421939,1320.838075,-9858.429112
42.451568,0.000000,287.138712,-10298.708470
42.454124,-727.418070,153.140646,-9571.290400
42.456681,2450.250342,2029.113565,-9035.298138
42.459237,-535.992262,842.273555,-10758.130410
42.461793,2488.535504,2143.969050,-8939.585234
42.464350,-8384.450390,-3694.518094,-11370.692995
42.466906,6183.053598,1186.840010,-8480.163294
42.469462,-1607.976787,-1091.127106,-11676.974288
42.472019,2526.820666,2545.963246,-8939.585234
42.474575,-4287.938099,-1378.265818,-10394.421374
42.477131,-1952.543242,-823.130974,-10336.993632
42.479688,4058.227130,1282.552914,-9705.288466
42.482244,-2029.113565,57.427742,-10662.417506
42.484800,2450.250342,1454.836141,-8939.585234
42.487357,-1952.543242,-267.996131,-10509.276859
42.489913,-1205.982590,-535.992262,-10317.851051
42.492469,2009.970984,1550.549045,-9418.149754
42.495026,-1837.687757,440.279358,-10911.271056
42.497582,1780.260014,593.420005,-9858.429112
42.500138,-631.705166,-153.140646,-9628.718142
42.502695,1225.125171,1205.982590,-10107.282662
42.505253,57.427742,-363.709035,-10356.136213
42.507810,-306.281293,-344.566454,-9322.436850
42.510367,708.275490,612.562586,-9456.434915
42.512924,-957.129040,114.855485,-10030.712339
42.515481,95.712904,153.140646,-10394.421374
42.518038,-918.843878,-133.998066,-9934.999435
42.520596,-1244.267752,-1378.265818,-10222.138147
42.523153,593.420005,-153.140646,-9571.290400
42.525710,555.134843,-325.423874,-9839.286531
42.528267,-2163.111630,210.568389,-9781.858789
42.530824,-612.562586,-612.562586,-10049.854920
42.533381,57.427742,593.420005,-9762.716208
42.535938,689.132909,861.416136,-9762.716208
42.538496,2890.529701,574.277424,-9073.583299
42.541053,-2813.959378,-2086.541307,-11983.255581
42.543610,-1952.543242,689.132909,-9762.716208
42.546167,6221.338760,4919.643266,-7523.034254
42.548724,-2450.250342,555.134843,-12193.823970
42.551281,6699.903280,-669.990328,-8748.159426
42.553839,-4364.508422,1091.127106,-9973.284597
42.556396,-2182.254211,4096.512291,-8824.729749
42.558953,3024.527766,95.712904,-11217.552349
42.561510,3005.385186,2507.678085,-9188.438784
42.564067,1550.549045,-133.998066,-10490.134278
42.566624,-1550.549045,516.849682,-9877.571693
42.569181,765.703232,2488.535504,-9418.149754
42.571739,3732.803256,1282.552914,-10068.997501
42.574296,19.142581,-172.283227,-10777.272990
42.576853,-746.560651,1071.984525,-9513.862658
42.579410,-574.277424,401.994197,-10011.569758
42.581967,1493.121302,1837.687757,-9322.436850
42.584524,-1225.125171,76.570323,-10700.702667
42.587081,153.140646,1684.547110,-9533.005238
42.589638,727.418070,765.703232,-9973.284597
42.592194,-899.701298,95.712904,-10375.278794
42.594751,1052.841944,1646.261949,-9475.577496
42.597308,823.130974,765.703232,-9992.427178
42.599865,2239.681954,2048.256146,-9820.143950
42.602422,2316.252277,2182.254211,-9686.145885
42.604978,114.855485,382.851616,-10336.993632
42.607535,-210.568389,1033.699363,-9705.288466
42.610092,1052.841944,1569.691626,-9954.142016
42.612649,306.281293,1225.125171,-9896.714274
42.615206,-19.142581,19.142581,-10049.854920
42.617762,3445.664544,1588.834206,-9169.296203
42.620319,-650.847747,2048.256146,-10030.712339
42.622876,2699.103893,1435.693560,-10585.847182
42.625433,-1397.408398,-861.416136,-9131.011042
42.627990,-2067.398726,-3254.238736,-10987.841379
42.630547,5474.778109,2163.111630,-9035.298138
42.633103,-746.560651,-1703.689691,-12346.964616
42.635660,2794.816797,2507.678085,-8518.448456
42.638217,-4536.791650,-3024.527766,-10815.558152
42.640774,-1148.554848,-229.710970,-9379.864592
42.643331,4077.369710,1110.269686,-10183.852986
42.645887,-3062.812928,287.138712,-10662.417506
42.648444,3120.240670,1263.410333,-8863.014910
42.651001,-2373.680019,-267.996131,-10241.280728
42.653558,-19.142581,172.283227,-10604.989763
42.656115,976.271621,918.843878,-9494.720077
42.658671,-957.129040,248.853550,-10222.138147
42.661228,459.421939,880.558717,-9226.723946
42.663785,-593.420005,-765.703232,-10068.997501
42.666342,440.279358,803.988394,-9781.858789
42.668899,287.138712,1091.127106,-9839.286531
42.671455,172.283227,38.285162,-10049.854920
42.674012,440.279358,-842.273555,-9801.001370
42.676569,-1167.697429,-172.283227,-9265.009107
42.679126,-516.849682,344.566454,-9456.434915
42.681683,-2029.113565,-957.129040,-10145.567824
42.684239,574.277424,-555.134843,-10107.282662
42.686796,-363.709035,516.849682,-9762.716208
42.689352,-937.986459,210.568389,-9896.714274
42.691909,-918.843878,95.712904,-9896.714274
42.694465,191.425808,-478.564520,-10068.997501
42.697022,1550.549045,1454.836141,-9858.429112
42.699578,1550.549045,574.277424,-9743.573627
42.702135,-2297.109696,-1933.400661,-11657.831707
42.704691,-1282.552914,842.273555,-9877.571693
42.707248,3924.229064,3617.947771,-7867.600709
42.709804,267.996131,1627.119368,-11638.689126
42.712360,6049.055533,-440.279358,-9341.579430
42.714917,-4728.217458,-1378.265818,-10547.562021
42.717473,-1263.410333,3139.383251,-8958.727814
42.720030,1875.972918,287.138712,-10547.562021
42.722586,2852.244539,2258.824534,-9609.575562
42.725143,976.271621,153.140646,-10336.993632
42.727699,-2316.252277,-267.996131,-10202.995566
42.730256,382.851616,3081.955509,-8786.444587
42.732812,2411.965181,1071.984525,-10126.425243
42.735369,-440.279358,248.853550,-10681.560086
42.737925,-267.996131,1091.127106,-9628.718142
42.740482,248.853550,1473.978722,-10068.997501
42.743038,2469.392923,1110.269686,-10049.854920
42.745594,-535.992262,-210.568389,-10719.845248
42.748151,880.558717,2009.970984,-9552.147819
42.750707,612.562586,287.138712,-9896.714274
42.753264,746.560651,535.992262,-10509.276859
42.755820,880.558717,1186.840010,-9801.001370
42.758377,1167.697429,1110.269686,-10164.710405
42.760933,3101.098090,2584.248408,-9762.716208
42.763490,325.423874,1129.412267,-10432.706536
42.766046,-440.279358,689.132909,-9705.288466
42.768603,650.847747,1684.547110,-9284.151688
42.771159,-210.568389,689.132909,-10241.280728
42.773716,1052.841944,1378.265818,-9781.858789
42.776272,-306.281293,133.998066,-10030.712339
42.778828,669.990328,3005.385186,-9379.864592
42.781385,1186.840010,344.566454,-10911.271056
42.783941,95.712904,1148.554848,-8805.587168
42.786498,-4211.367776,-3598.805190,-11810.972354
42.789054,4651.647134,1359.123237,-8461.020714
42.791611,-382.851616,-1052.841944,-10949.556218
42.794167,555.134843,1244.267752,-9399.007173
42.796724,-631.705166,497.707101,-9896.714274
42.799280,-1148.554848,-1301.695494,-9781.858789
42.801837,3101.098090,459.421939,-9896.714274
42.804393,-2067.398726,-287.138712,-10164.710405
42.806950,1741.974853,669.990328,-9131.011042
42.809506,-1646.261949,-38.285162,-9896.714274
42.812063,-172.283227,-708.275490,-10930.413637
42.814620,1244.267752,1722.832272,-9150.153622
42.817176,-1588.834206,-1014.556782,-10528.419440
42.819733,1416.550979,1531.406464,-9322.436850
42.822290,-19.142581,-363.709035,-10336.993632
42.824847,-210.568389,-267.996131,-9934.999435
42.827403,1339.980656,2297.109696,-9226.723946
42.829960,-842.273555,-306.281293,-10853.843314
42.832517,76.570323,-57.427742,-9245.866526
42.835073,-306.281293,1071.984525,-9896.714274
42.837630,-746.560651,440.279358,-10317.851051
42.840187,-842.273555,-153.140646,-9628.718142
42.842744,38.285162,-95.712904,-10164.710405
42.845300,-1359.123237,784.845813,-9858.429112
42.847857,-727.418070,153.140646,-9992.427178
42.850414,153.140646,191.425808,-9456.434915
42.852970,-976.271621,-382.851616,-10968.698798
42.855527,1091.127106,1799.402595,-9188.438784
42.858084,-1014.556782,-2201.396792,-9801.001370
42.860641,-2373.680019,114.855485,-9073.583299
42.863197,4326.223261,3771.088418,-9035.298138
42.865754,-3445.664544,-1627.119368,-11887.542677
42.868311,9590.432981,4115.654872,-7331.608446
42.870868,-5761.916821,-2105.683888,-11906.685258
42.873424,-669.990328,-478.564520,-9609.575562
42.875981,1435.693560,3866.801322,-8422.735552
42.878538,-861.416136,-669.990328,-11619.546546
42.881094,5761.916821,631.705166,-9724.431046
42.883651,-2316.252277,-133.998066,-9590.432981
42.886208,-76.570323,1091.127106,-10145.567824
42.888765,3503.092286,2201.396792,-9360.722011
42.891322,1416.550979,153.140646,-10011.569758
42.893880,-210.568389,1473.978722,-9303.294269
42.896437,-555.134843,248.853550,-10604.989763
42.898995,1263.410333,1761.117434,-9016.155557
42.901552,-248.853550,-210.568389,-10164.710405
42.904110,-153.140646,1301.695494,-9533.005238
42.906667,823.130974,1148.554848,-9801.001370
42.909225,-306.281293,363.709035,-10298.708470
42.911782,1186.840010,2124.826469,-9877.571693
42.914340,1588.834206,1378.265818,-9801.001370
42.916898,1780.260014,2258.824534,-9973.284597
42.919455,727.418070,1493.121302,-10107.282662
42.922013,-1588.834206,1282.552914,-9647.860723
42.924570,1244.267752,1627.119368,-9284.151688
42.927128,-650.847747,0.000000,-10451.849117
42.929685,-57.427742,516.849682,-9724.431046
42.932243,4345.365842,2660.818731,-9073.583299
42.934800,-3196.810994,497.707101,-10528.419440
42.937358,2852.244539,2411.965181,-9226.723946
42.939915,-7944.171032,-3598.805190,-9475.577496
42.942473,1110.269686,-535.992262,-8843.872330
42.945031,2048.256146,2392.822600,-9915.856854
42.947588,-689.132909,-1837.687757,-12193.823970
42.950146,574.277424,3847.658741,-7369.893608
42.952703,-4709.074877,-2603.390989,-10107.282662
42.955261,1110.269686,535.992262,-9399.007173
42.957818,2316.252277,803.988394,-9724.431046
42.960376,-3292.523898,-1110.269686,-11351.550414
42.962933,1741.974853,1454.836141,-8461.020714
42.965491,-3120.240670,-2220.539373,-10490.134278
42.968048,995.414202,1129.412267,-8709.874264
42.970606,861.416136,-210.568389,-10700.702667
42.973164,-1914.258080,708.275490,-10145.567824
42.975721,1339.980656,-38.285162,-9839.286531
42.978279,-2297.109696,-248.853550,-9705.288466
42.980836,957.129040,1703.689691,-9379.864592
42.983394,-650.847747,842.273555,-10566.704602
42.985951,-669.990328,-516.849682,-9973.284597
42.988509,401.994197,1167.697429,-9226.723946
42.991066,-1397.408398,-593.420005,-10432.706536
42.993624,-1244.267752,-401.994197,-9743.573627
42.996181,497.707101,-440.279358,-10145.567824
42.998739,-1627.119368,1378.265818,-9609.575562
43.001296,421.136778,669.990328,-10049.854920
43.003854,-650.847747,593.420005,-9724.431046
43.006411,-248.853550,172.283227,-10490.134278
43.008969,1110.269686,1205.982590,-9379.864592
43.011526,-344.566454,-2794.816797,-10911.271056
43.014084,-1531.406464,918.843878,-8939.585234
43.016641,4383.651003,3483.949706,-8901.300072
43.019199,-1684.547110,382.851616,-11925.827838
43.021756,9609.575562,3158.525832,-8556.733618
43.024314,-4881.358104,-2067.398726,-11676.974288
43.026871,-478.564520,1205.982590,-9035.298138
43.029428,1531.406464,2545.963246,-9360.722011
43.031986,1033.699363,1339.980656,-10853.843314
43.034543,3062.812928,133.998066,-10222.138147
43.037101,-1110.269686,1014.556782,-9743.573627
43.039658,-1646.261949,1129.412267,-9839.286531
43.042216,3809.373579,1818.545176,-9494.720077
43.044773,229.710970,210.568389,-10738.987829
43.047331,172.283227,1416.550979,-9533.005238
43.049888,765.703232,-76.570323,-10011.569758
43.052446,1167.697429,689.132909,-9169.296203
43.055003,-306.281293,210.568389,-9992.427178
43.057561,287.138712,784.845813,-9705.288466
43.060118,306.281293,669.990328,-9762.716208
43.062676,421.136778,-229.710970,-10317.851051
43.065233,574.277424,1722.832272,-9265.009107
43.067791,1741.974853,2105.683888,-9628.718142
43.070348,57.427742,1971.685822,-10107.282662
43.072906,-382.851616,1205.982590,-9686.145885
43.075463,880.558717,1186.840010,-9571.290400
43.078020,-440.279358,-76.570323,-10241.280728
43.080578,57.427742,995.414202,-9954.142016
43.083135,2947.957443,2239.681954,-9456.434915
43.085693,1435.693560,2354.537438,-9724.431046
43.088250,1799.402595,421.136778,-11255.837510
43.090808,-267.996131,1052.841944,-8384.450390
43.093365,784.845813,-1378.265818,-10164.710405
43.095923,3005.385186,2431.107762,-9475.577496
43.098481,-478.564520,-2603.390989,-11964.113000
43.101038,2392.822600,5015.356170,-7465.606512
43.103596,-4230.510357,-1703.689691,-11504.691061
43.106154,-650.847747,-248.853550,-9934.999435
43.108711,3751.945837,382.851616,-9839.286531
43.111269,-3656.232933,-76.570323,-10451.849117
43.113827,2297.109696,1703.689691,-8480.163294
43.116384,-2526.820666,-1512.263883,-10585.847182
43.118942,899.701298,918.843878,-9647.860723
43.121500,574.277424,363.709035,-9915.856854
43.124058,-2201.396792,-555.134843,-10164.710405
43.126615,669.990328,823.130974,-9303.294269
43.129173,-555.134843,593.420005,-10030.712339
43.131731,287.138712,516.849682,-9934.999435
43.134288,-765.703232,1244.267752,-9820.143950
43.136846,516.849682,-440.279358,-10681.560086
43.139404,-440.279358,306.281293,-9169.296203
43.141961,-842.273555,-1531.406464,-10279.565890
43.144519,-631.705166,-459.421939,-9475.577496
43.147077,-459.421939,-1301.695494,-10566.704602
43.149634,-2067.398726,1473.978722,-9399.007173
43.152192,976.271621,1339.980656,-9743.573627
43.154750,-1129.412267,-995.414202,-10049.854920
43.157307,-153.140646,-382.851616,-9647.860723
43.159865,727.418070,497.707101,-9188.438784
43.162423,-3081.955509,-631.705166,-11236.694930
43.164980,-765.703232,2220.539373,-9973.284597
43.167538,1052.841944,3349.951640,-8327.022648
43.170096,1186.840010,2124.826469,-10585.847182
43.172653,3426.521963,-574.277424,-9762.716208
43.175211,-937.986459,-306.281293,-9801.001370
43.177769,-95.712904,4977.071008,-8537.591037
43.180326,-306.281293,-267.996131,-11485.548480
43.182884,4709.074877,2450.250342,-9054.440718
43.185442,-38.285162,1282.552914,-10049.854920
43.188000,-2048.256146,-727.418070,-10585.847182
43.190557,976.271621,3330.809059,-8154.739421
43.193115,1378.265818,555.134843,-10183.852986
43.195673,1473.978722,1052.841944,-10317.851051
43.198230,-363.709035,459.421939,-9896.714274
43.200788,823.130974,1952.543242,-9341.579430
43.203346,1014.556782,-76.570323,-10566.704602
43.205904,-593.420005,918.843878,-9801.001370
43.208462,1014.556782,1091.127106,-9820.143950
43.211019,306.281293,1167.697429,-9399.007173
43.213577,1320.838075,401.994197,-10853.843314
43.216135,1799.402595,1761.117434,-10107.282662
43.218693,1205.982590,1512.263883,-9399.007173
43.221250,-842.273555,1244.267752,-9609.575562
43.223808,765.703232,1110.269686,-9858.429112
43.226366,-976.271621,-497.707101,-10375.278794
43.228924,918.843878,1244.267752,-9475.577496
43.231482,2890.529701,1301.695494,-9877.571693
43.234039,1244.267752,2622.533570,-9743.573627
43.236597,2565.105827,689.132909,-10758.130410
43.239155,-5130.211654,-2890.529701,-9131.011042
43.241713,363.709035,-1091.127106,-9801.001370
43.244270,2526.820666,1378.265818,-9820.143950
43.246828,-382.851616,-2086.541307,-11581.261384
43.249386,1282.552914,4785.645200,-7465.606512
43.251944,-3445.664544,-2163.111630,-11370.692995
43.254501,-976.271621,-248.853550,-9399.007173
43.257059,2297.109696,287.138712,-10011.569758
43.259617,-3675.375514,210.568389,-10260.423309
43.262175,1780.260014,1684.547110,-8882.157491
43.264733,-3330.809059,-1110.269686,-10643.274925
43.267290,612.562586,535.992262,-9590.432981
43.269848,937.986459,746.560651,-9571.290400
43.272406,-2297.109696,-114.855485,-10202.995566
43.274964,861.416136,976.271621,-10317.851051
43.277521,-784.845813,593.420005,-9628.718142
43.280079,765.703232,-172.283227,-9762.716208
43.282637,-1301.695494,593.420005,-9877.571693
43.285195,708.275490,1091.127106,-9590.432981
43.287753,-669.990328,172.283227,-10068.997501
43.290310,-2048.256146,-1722.832272,-10164.710405
43.292868,-248.853550,95.712904,-9456.434915
43.295426,-1588.834206,19.142581,-9820.143950
43.297984,957.129040,2048.256146,-9762.716208
43.300542,210.568389,-114.855485,-10317.851051
43.303100,363.709035,-95.712904,-10049.854920
43.305658,1244.267752,172.283227,-9877.571693
43.308216,-2277.967115,-1703.689691,-11140.982026
43.310774,-1837.687757,899.701298,-9265.009107
43.313333,4058.227130,4689.932296,-8039.883936
43.315891,-1148.554848,593.420005,-12385.249778
43.318449,6317.051664,114.855485,-8901.300072
43.321007,-3369.094221,-95.712904,-10260.423309
43.323565,-1512.263883,1473.978722,-9628.718142
43.326123,1473.978722,0.000000,-10911.271056
43.328681,1205.982590,2335.394858,-9399.007173
43.331240,1416.550979,631.705166,-10011.569758
43.333798,-1263.410333,-689.132909,-9609.575562
43.336356,133.998066,2622.533570,-8863.014910
43.338914,861.416136,650.847747,-10317.851051
43.341472,1359.123237,363.709035,-10049.854920
43.344030,-191.425808,2086.541307,-8843.872330
43.346588,823.130974,708.275490,-9801.001370
43.349147,1148.554848,1167.697429,-10336.993632
43.351705,-995.414202,1014.556782,-9877.571693
43.354263,1301.695494,842.273555,-9992.427178
43.356821,76.570323,1741.974853,-9456.434915
43.359379,1110.269686,593.420005,-10413.563955
43.361937,1780.260014,3043.670347,-9437.292334
43.364495,727.418070,1531.406464,-10126.425243
43.367054,1722.832272,1952.543242,-10126.425243
43.369612,-1493.121302,-57.427742,-10260.423309
43.372170,-57.427742,765.703232,-9705.288466
43.374728,-210.568389,1320.838075,-9724.431046
43.377286,4575.076811,1761.117434,-9399.007173
43.379844,-2890.529701,516.849682,-9954.142016
43.382402,1818.545176,1914.258080,-9341.579430
43.384961,-9322.436850,-2756.531635,-10470.991698
43.387519,4230.510357,1569.691626,-7465.606512
43.390077,76.570323,421.136778,-10260.423309
43.392635,421.136778,19.142581,-10681.560086
43.395193,325.423874,1971.685822,-9360.722011
43.397751,-3905.086483,-1952.543242,-10375.278794
43.400309,2833.101958,363.709035,-9437.292334
43.402835,1205.982590,-133.998066,-10298.708470
43.405361,-1971.685822,-38.285162,-9858.429112
43.407886,-1435.693560,842.273555,-9705.288466
43.410412,210.568389,-1761.117434,-10949.556218
43.412938,459.421939,2029.113565,-8595.018779
43.415463,-421.136778,-1186.840010,-10662.417506
43.417989,-229.710970,1799.402595,-9360.722011
43.420515,1359.123237,267.996131,-10987.841379
43.423040,-459.421939,823.130974,-10107.282662
43.425566,-95.712904,229.710970,-10030.712339
43.428092,899.701298,-57.427742,-9571.290400
43.430617,-631.705166,746.560651,-9360.722011
43.433143,-1397.408398,-1952.543242,-11121.839445
43.435669,-306.281293,-191.425808,-9513.862658
43.438194,-2622.533570,-899.701298,-10107.282662
43.440720,1378.265818,1818.545176,-9341.579430
43.443246,-478.564520,918.843878,-10145.567824
43.445771,421.136778,76.570323,-9724.431046
43.448297,1837.687757,-133.998066,-9686.145885
43.450823,-1186.840010,-1722.832272,-11198.409768
43.453348,-459.421939,306.281293,-9322.436850
43.455874,4632.504554,4421.936165,-8767.302006
43.458400,-976.271621,708.275490,-12423.534939
43.460925,8595.018779,2699.103893,-8920.442653
43.463451,-3598.805190,-1856.830338,-11466.405899
43.465977,-1473.978722,3196.810994,-9188.438784
43.468502,2737.389054,516.849682,-10719.845248
43.471028,-95.712904,2622.533570,-9801.001370
43.473554,2871.387120,516.849682,-10049.854920
43.476079,-937.986459,650.847747,-9552.147819
43.478605,-287.138712,1588.834206,-9877.571693
43.481131,2048.256146,1167.697429,-9781.858789
43.483656,899.701298,708.275490,-9896.714274
43.486182,-267.996131,1741.974853,-9188.438784
43.488708,1148.554848,861.416136,-10547.562021
43.491233,-248.853550,516.849682,-10145.567824
43.493759,-363.709035,899.701298,-9647.860723
43.496285,593.420005,976.271621,-9494.720077
43.498810,957.129040,1052.841944,-10068.997501
43.501336,612.562586,880.558717,-10547.562021
43.503836,3081.955509,1531.406464,-9571.290400
43.506337,842.273555,2411.965181,-9418.149754
43.508837,440.279358,1378.265818,-9801.001370
43.511338,-708.275490,-2067.398726,-10815.558152
43.513838,-306.281293,1359.123237,-9092.725880
43.516339,2928.814862,1186.840010,-9781.858789
43.518839,2871.387120,3311.666478,-9667.003304
43.521340,0.000000,-593.420005,-11696.116869
43.523840,57.427742,248.853550,-8652.446522
43.526341,669.990328,-1052.841944,-10068.997501
43.528842,4249.652938,1856.830338,-9820.143950
43.531342,76.570323,-2756.531635,-12212.966550
43.533843,2737.389054,3292.523898,-7446.463931
43.536343,-3407.379382,-1263.410333,-10987.841379
43.538844,650.847747,325.423874,-9992.427178
43.541344,3254.238736,287.138712,-10681.560086
43.543845,-2507.678085,535.992262,-10183.852986
43.546345,1914.258080,497.707101,-8920.442653
43.548846,-2239.681954,38.285162,-9781.858789
43.551346,1359.123237,-191.425808,-10547.562021
43.553847,306.281293,842.273555,-9781.858789
43.556347,-1110.269686,650.847747,-10509.276859
43.558848,555.134843,803.988394,-9896.714274
43.561348,-516.849682,229.710970,-9667.003304
43.563849,172.283227,957.129040,-9647.860723
43.566349,114.855485,1110.269686,-9609.575562
43.568850,-267.996131,-593.420005,-10719.845248
43.571350,-1435.693560,-191.425808,-9494.720077
43.573851,-344.566454,-1531.406464,-10126.425243
43.576351,-2143.969050,-325.423874,-9992.427178
43.578852,1167.697429,1569.691626,-9686.145885
43.581352,1071.984525,1033.699363,-10107.282662
43.583853,-555.134843,-937.986459,-10681.560086
43.586353,1569.691626,555.134843,-9590.432981
43.588854,-57.427742,-2201.396792,-11562.118803
43.591354,-401.994197,1378.265818,-9781.858789
43.593855,4823.930362,3311.666478,-8920.442653
43.596355,-1071.984525,-76.570323,-11772.687192
43.598856,8786.444587,1875.972918,-8633.303941
43.601356,-3522.234867,-842.273555,-11523.833642
43.603868,-478.564520,976.271621,-9456.434915
43.606379,1607.976787,1129.412267,-10470.991698
43.608891,880.558717,1550.549045,-9973.284597
43.611402,3101.098090,650.847747,-9781.858789
43.613913,-1320.838075,-306.281293,-10049.854920
43.616425,-38.285162,2660.818731,-9379.864592
43.618936,1052.841944,861.416136,-10126.425243
43.621447,842.273555,631.705166,-9801.001370
43.623959,1339.980656,1244.267752,-9820.143950
43.626470,918.843878,229.710970,-9647.860723
43.628982,1550.549045,746.560651,-9915.856854
43.631493,459.421939,842.273555,-10241.280728
43.634004,1071.984525,382.851616,-9973.284597
43.636516,1378.265818,1627.119368,-9379.864592
43.639027,0.000000,880.558717,-10260.423309
43.641539,1263.410333,2354.537438,-9111.868461
43.644050,650.847747,1837.687757,-9820.143950
43.646561,-1761.117434,-210.568389,-9820.143950
43.649073,535.992262,-689.132909,-10279.565890
43.651584,1397.408398,2450.250342,-9571.290400
43.654095,5915.057467,1856.830338,-10356.136213
43.656607,-2163.111630,880.558717,-10413.563955
43.659118,3790.230998,2067.398726,-9284.151688
43.661630,-10394.421374,-3809.373579,-11370.692995
43.664141,3885.943902,2220.539373,-8154.739421
43.666652,1397.408398,689.132909,-10566.704602
43.669164,-746.560651,689.132909,-10758.130410
43.671675,-1933.400661,650.847747,-9743.573627
43.674187,-4000.799387,0.000000,-9150.153622
43.676698,1569.691626,689.132909,-9513.862658
43.679209,-19.142581,-267.996131,-10298.708470
43.681721,-1588.834206,1435.693560,-10241.280728
43.684232,-1033.699363,784.845813,-9973.284597
43.686743,-191.425808,-1359.123237,-11083.554283
43.689255,899.701298,1703.689691,-8595.018779
43.691766,-1320.838075,114.855485,-10298.708470
43.694278,1282.552914,803.988394,-9954.142016
43.696789,-555.134843,-287.138712,-10202.995566
43.699300,248.853550,708.275490,-9781.858789
43.701812,918.843878,899.701298,-9724.431046
43.704332,-899.701298,-669.990328,-10509.276859
43.706852,-229.710970,-133.998066,-9513.862658
43.709373,-1493.121302,-1473.978722,-10528.419440
43.711893,-1531.406464,-1014.556782,-10279.565890
43.714413,1339.980656,612.562586,-9686.145885
43.716934,-191.425808,1416.550979,-9858.429112
43.719454,38.285162,-1071.984525,-10509.276859
43.721974,306.281293,114.855485,-8882.157491
43.724495,-1780.260014,-2545.963246,-10987.841379
43.727015,-1378.265818,1091.127106,-9092.725880
43.729535,5015.356170,5455.635528,-7886.743290
43.732056,-497.707101,-421.136778,-12480.962682
43.734576,1359.123237,-1493.121302,-10547.562021
43.737096,-1837.687757,248.853550,-9513.862658
43.739617,-516.849682,3790.230998,-8422.735552
43.742137,1129.412267,-114.855485,-10930.413637
43.744657,2526.820666,2297.109696,-9456.434915
43.747178,478.564520,114.855485,-10298.708470
43.749698,-1205.982590,-325.423874,-9609.575562
43.752218,-803.988394,2794.816797,-8403.592971
43.754739,1378.265818,823.130974,-10375.278794
43.757259,2239.681954,1780.260014,-10126.425243
43.759779,-325.423874,1761.117434,-10375.278794
43.762300,593.420005,248.853550,-10470.991698
43.764820,57.427742,842.273555,-9456.434915
43.767340,-57.427742,1550.549045,-9973.284597
43.769861,478.564520,1110.269686,-10011.569758
43.772381,2163.111630,2124.826469,-10030.712339
43.774901,727.418070,2469.392923,-9705.288466
43.777422,1071.984525,2699.103893,-9647.860723
43.779942,-306.281293,1244.267752,-9513.862658
43.782462,-1952.543242,-976.271621,-9992.427178
43.784983,114.855485,1416.550979,-9705.288466
43.787503,2450.250342,2737.389054,-9552.147819
43.790023,1167.697429,1435.693560,-9552.147819
43.792544,401.994197,153.140646,-10279.565890
43.795064,-10317.851051,-4613.361973,-9954.142016
43.797584,3445.664544,555.134843,-8193.024582
43.800105,1320.838075,1646.261949,-10413.563955
43.802625,-612.562586,-3101.098090,-11944.970419
43.805154,1684.547110,3751.945837,-7484.749093
43.807682,-5091.926493,-2909.672282,-10968.698798
43.810210,535.992262,-229.710970,-9513.862658
43.812739,2048.256146,593.420005,-9992.427178
43.815267,-2373.680019,-899.701298,-11083.554283
43.817796,440.279358,1091.127106,-9169.296203
43.820324,-1722.832272,-1033.699363,-10164.710405
43.822853,918.843878,880.558717,-9360.722011
43.825381,-574.277424,38.285162,-10432.706536
43.827909,-880.558717,1091.127106,-9667.003304
43.830438,210.568389,153.140646,-9896.714274
43.832966,-535.992262,631.705166,-10126.425243
43.835495,555.134843,803.988394,-9552.147819
43.838023,-1244.267752,-19.142581,-10068.997501
43.840552,-191.425808,401.994197,-9762.716208
43.843080,-2775.674216,-1435.693560,-10126.425243
43.845608,-823.130974,-306.281293,-9647.860723
43.848137,440.279358,1129.412267,-9628.718142
43.850665,899.701298,708.275490,-10145.567824
43.853194,555.134843,631.705166,-9379.864592
43.855722,-344.566454,-765.703232,-9628.718142
43.858251,-2679.961312,267.996131,-10930.413637
43.860779,-1684.547110,1550.549045,-10375.278794
43.863307,2507.678085,4058.227130,-7159.325219
43.865836,555.134843,191.425808,-10949.556218
43.868364,2086.541307,95.712904,-9686.145885
43.870893,-1378.265818,-19.142581,-10164.710405
43.873421,-1761.117434,5130.211654,-8039.883936
43.875950,-612.562586,-1225.125171,-11408.978157
43.878478,4517.649069,1454.836141,-8748.159426
43.881006,-784.845813,880.558717,-10126.425243
43.883535,-1990.828403,401.994197,-10317.851051
43.886063,1780.260014,1761.117434,-8843.872330
43.888592,650.847747,593.420005,-10126.425243
43.891120,1186.840010,708.275490,-10145.567824
43.893649,-76.570323,612.562586,-10260.423309
43.896177,497.707101,1148.554848,-9915.856854
43.898705,-95.712904,19.142581,-9915.856854
43.901234,727.418070,325.423874,-9207.581365
43.903762,1895.115499,1397.408398,-9552.147819
43.906298,1875.972918,1071.984525,-10336.993632
43.908833,2545.963246,1780.260014,-10145.567824
43.911369,2297.109696,2641.676150,-9647.860723
43.913904,-1225.125171,-1110.269686,-10336.993632
43.916440,-344.566454,114.855485,-9973.284597
43.918976,1780.260014,2392.822600,-9820.143950
43.921511,5838.487144,3464.807125,-9839.286531
43.924047,210.568389,306.281293,-11676.974288
43.926582,2411.965181,1588.834206,-8882.157491
43.929118,-7293.323285,-3713.660675,-12461.820101
43.931653,3177.668413,2431.107762,-7944.171032
43.934189,1818.545176,-1971.685822,-11428.120738
43.936724,2813.959378,3369.094221,-8154.739421
43.939260,-2450.250342,-612.562586,-11887.542677
43.941795,-38.285162,803.988394,-10241.280728
43.944331,3254.238736,363.709035,-10088.140082
43.946867,-1225.125171,-363.709035,-10088.140082
43.949402,1225.125171,1684.547110,-9379.864592
43.951938,-1512.263883,727.418070,-10585.847182
43.954473,1167.697429,-287.138712,-10968.698798
43.957009,842.273555,746.560651,-9456.434915
43.959544,-899.701298,-210.568389,-9954.142016
43.962080,708.275490,708.275490,-9896.714274
43.964615,-1225.125171,-133.998066,-10202.995566
43.967151,1301.695494,669.990328,-9705.288466
43.969687,-306.281293,95.712904,-10107.282662
43.972222,-133.998066,-823.130974,-10547.562021
43.974758,-2507.678085,-1627.119368,-9992.427178
43.977293,-1014.556782,-1225.125171,-9820.143950
43.979829,937.986459,842.273555,-9590.432981
43.982364,1378.265818,-153.140646,-10585.847182
43.984900,-727.418070,555.134843,-9322.436850
43.987435,631.705166,-1646.261949,-9647.860723
43.989971,-2833.101958,-1837.687757,-10547.562021
43.992506,-1856.830338,401.994197,-9762.716208
43.995042,-727.418070,1799.402595,-8078.169098
43.997578,4345.365842,1933.400661,-10107.282662
44.000113,-1186.840010,-784.845813,-10222.138147
44.002649,-574.277424,-593.420005,-9705.288466
44.005184,-1454.836141,4881.358104,-8346.165229
44.007725,1607.976787,-421.136778,-11638.689126
44.010267,2258.824534,1780.260014,-9188.438784
44.012808,1205.982590,287.138712,-10164.710405
44.015349,-1244.267752,-19.142581,-10470.991698
44.017890,1914.258080,2565.105827,-8671.589102
44.020431,689.132909,727.418070,-10777.272990
44.022972,1741.974853,1646.261949,-10375.278794
44.025513,-421.136778,306.281293,-10317.851051
44.028055,1435.693560,1684.547110,-9379.864592
44.030596,1033.699363,842.273555,-10509.276859
44.033137,631.705166,861.416136,-10279.565890
44.035678,918.843878,1071.984525,-9667.003304
44.038219,880.558717,1780.260014,-9743.573627
44.040760,2048.256146,2392.822600,-9915.856854
44.043302,-133.998066,2067.398726,-9360.722011
44.045843,-1378.265818,-535.992262,-10317.851051
44.048384,287.138712,1320.838075,-9839.286531
44.050925,2947.957443,2890.529701,-9647.860723
44.053466,516.849682,2163.111630,-9399.007173
44.056007,1952.543242,1110.269686,-9667.003304
44.058549,-9399.007173,-5340.780043,-10356.136213
44.061090,3139.383251,995.414202,-8001.598774
44.063631,2373.680019,1895.115499,-10643.274925
44.066172,-861.416136,-3292.523898,-12136.396227
44.068713,2029.113565,2699.103893,-7121.040058
44.071254,-5608.776174,-1741.974853,-10547.562021
44.073796,1205.982590,-248.853550,-9915.856854
44.076337,727.418070,-19.142581,-9801.001370
44.078878,-2986.242605,-76.570323,-10509.276859
44.081419,-172.283227,-19.142581,-9322.436850
44.083960,-823.130974,-957.129040,-9820.143950
44.086501,918.843878,612.562586,-9475.577496
44.089042,172.283227,0.000000,-10336.993632
44.091584,-133.998066,842.273555,-9858.429112
44.094125,937.986459,-191.425808,-10202.995566
44.096666,-574.277424,57.427742,-9934.999435
44.099207,746.560651,440.279358,-9399.007173
44.101748,-1110.269686,153.140646,-10126.425243
44.104289,-1454.836141,-1167.697429,-10643.274925
44.106831,-2411.965181,-210.568389,-9647.860723
44.109377,1205.982590,899.701298,-9992.427178
44.111922,1627.119368,1167.697429,-10011.569758
44.114468,287.138712,-267.996131,-10279.565890
44.117014,1531.406464,344.566454,-9150.153622
44.119560,-1722.832272,-2220.539373,-12232.109131
44.122106,-1071.984525,2679.961312,-9475.577496
44.124652,3924.229064,4115.654872,-8078.169098
44.127198,-306.281293,478.564520,-11274.980091
44.129744,5015.356170,459.421939,-9513.862658
44.132290,-976.271621,-459.421939,-9839.286531
44.134836,-976.271621,4996.213589,-8767.302006
44.137382,708.275490,-267.996131,-11389.835576
44.139927,3273.381317,1646.261949,-9303.294269
44.142473,210.568389,899.701298,-9839.286531
44.145019,-976.271621,421.136778,-10432.706536
44.147565,1703.689691,2431.107762,-9016.155557
44.150111,0.000000,325.423874,-10681.560086
44.152657,2009.970984,1875.972918,-9475.577496
44.155203,-650.847747,-38.285162,-10451.849117
44.157749,57.427742,344.566454,-9667.003304
44.160295,287.138712,1225.125171,-9303.294269
44.162841,172.283227,899.701298,-10107.282662
44.165387,1722.832272,1071.984525,-9801.001370
44.167933,708.275490,1933.400661,-10413.563955
44.170478,2086.541307,2909.672282,-9226.723946
44.173024,-861.416136,-765.703232,-10260.423309
44.175570,-2124.826469,669.990328,-9437.292334
44.178116,1627.119368,918.843878,-9973.284597
44.180662,5053.641331,3675.375514,-9533.005238
44.183208,-1914.258080,-1071.984525,-11160.124606
44.185754,2909.672282,2507.678085,-8097.311678
44.188300,-6623.332957,-4115.654872,-12806.386555
44.190846,3713.660675,2105.683888,-7733.602643
44.193392,1531.406464,-229.710970,-10949.556218
44.195938,-287.138712,2469.392923,-9667.003304
44.198483,-2584.248408,-1875.972918,-10643.274925
44.201029,-2967.100024,669.990328,-8403.592971
44.203575,1818.545176,95.712904,-10011.569758
44.206121,-631.705166,363.709035,-10030.712339
44.208667,1454.836141,612.562586,-9667.003304
44.211217,-1225.125171,478.564520,-10509.276859
44.213767,1607.976787,-669.990328,-10987.841379
44.216318,1110.269686,1512.263883,-9054.440718
44.218868,-1071.984525,191.425808,-10566.704602
44.221418,306.281293,1205.982590,-10049.854920
44.223968,-516.849682,38.285162,-9705.288466
44.226518,937.986459,765.703232,-9647.860723
44.229068,-669.990328,19.142581,-10279.565890
44.231618,-1531.406464,-1244.267752,-10432.706536
44.234169,-2029.113565,-727.418070,-9360.722011
44.236719,-612.562586,-880.558717,-9992.427178
44.239269,2986.242605,1320.838075,-9934.999435
44.241819,-497.707101,57.427742,-10145.567824
44.244369,478.564520,-593.420005,-9705.288466
44.246919,-1416.550979,-3101.098090,-10375.278794
44.249469,-2411.965181,421.136778,-9226.723946
44.252020,6106.483275,5857.629725,-7293.323285
44.254570,-1569.691626,-880.558717,-13418.949141
44.257120,5627.918755,1550.549045,-8327.022648
44.259670,-3560.520029,-574.277424,-10145.567824
44.262220,-1588.834206,2029.113565,-9609.575562
44.264770,1741.974853,1225.125171,-9647.860723
44.267320,-765.703232,1225.125171,-10107.282662
44.269871,2603.390989,593.420005,-11064.411702
44.272421,-153.140646,842.273555,-10796.415571
44.274971,363.709035,3101.098090,-8997.012976
44.277521,1435.693560,-172.283227,-10451.849117
44.280071,325.423874,1473.978722,-9724.431046
44.282621,382.851616,593.420005,-9896.714274
44.285171,823.130974,842.273555,-9781.858789
44.287722,1435.693560,306.281293,-9169.296203
44.290272,-133.998066,344.566454,-10164.710405
44.292822,2220.539373,1741.974853,-9628.718142
44.295372,2201.396792,2335.394858,-9915.856854
44.297922,2163.111630,2545.963246,-9973.284597
44.300472,114.855485,-689.132909,-10336.993632
44.303022,-1148.554848,267.996131,-9628.718142
44.305573,1684.547110,1569.691626,-9705.288466
44.308123,5723.631659,3426.521963,-9628.718142
44.310673,191.425808,-401.994197,-11504.691061
44.313200,57.427742,1627.119368,-8116.454259
44.315728,-4249.652938,-4421.936165,-12366.107197
44.318255,3637.090352,1761.117434,-8441.878133
44.320783,1914.258080,-899.701298,-10719.845248
44.323310,708.275490,3273.381317,-9418.149754
44.325838,-2431.107762,-1722.832272,-11332.407834
44.328365,689.132909,1186.840010,-9973.284597
44.330893,3062.812928,-535.992262,-10777.272990
44.333420,-1435.693560,-535.992262,-10088.140082
44.335948,937.986459,803.988394,-8901.300072
44.338476,-1856.830338,114.855485,-10375.278794
44.341003,1473.978722,-1167.697429,-10987.841379
44.343531,555.134843,1052.841944,-8748.159426
44.346058,-1129.412267,-133.998066,-10336.993632
44.348586,899.701298,344.566454,-10183.852986
44.351113,-1129.412267,-478.564520,-10356.136213
44.353641,784.845813,-95.712904,-9571.290400
44.356168,-1378.265818,287.138712,-9781.858789
44.358696,-2392.822600,-2565.105827,-10777.272990
44.361223,-325.423874,19.142581,-9341.579430
44.363751,248.853550,823.130974,-10183.852986
44.366278,57.427742,1646.261949,-10126.425243
44.368806,574.277424,-1052.841944,-10068.997501
44.371333,-210.568389,-1014.556782,-9418.149754
44.373861,-2048.256146,1186.840010,-10853.843314
44.376388,3675.375514,5034.498750,-10164.710405
44.378916,-1856.830338,-306.281293,-10470.991698
44.381443,8384.450390,4173.082614,-8250.452325
44.383971,-3541.377448,-1741.974853,-11830.114934
44.386498,-401.994197,19.142581,-9705.288466
44.389026,1818.545176,3407.379382,-8939.585234
44.391553,-2871.387120,-650.847747,-11140.982026
44.394081,5723.631659,1741.974853,-8690.731683
44.396608,-1301.695494,1378.265818,-9762.716208
44.399136,497.707101,-325.423874,-11313.265253
44.401663,1780.260014,2967.100024,-9226.723946
44.404191,-1071.984525,823.130974,-10279.565890
44.406718,363.709035,937.986459,-9973.284597
44.409246,-229.710970,708.275490,-9915.856854
44.411773,746.560651,382.851616,-9877.571693
44.414308,382.851616,784.845813,-9896.714274
44.416842,669.990328,1320.838075,-10222.138147
44.419377,1607.976787,1971.685822,-9399.007173
44.421912,2526.820666,3158.525832,-9418.149754
44.424446,-1761.117434,-153.140646,-10470.991698
44.426981,-1588.834206,1033.699363,-9245.866526
44.429515,2660.818731,2105.683888,-9513.862658
44.432050,3522.234867,2641.676150,-9781.858789
44.434585,344.566454,267.996131,-10719.845248
44.437119,1531.406464,1129.412267,-8575.876198
44.439654,-8441.878133,-3522.234867,-12136.396227
44.442189,4555.934230,1435.693560,-7771.887805
44.444723,-325.423874,38.285162,-10145.567824
44.447258,823.130974,1282.552914,-9781.858789
44.449792,-2258.824534,-1933.400661,-11868.400096
44.452327,-593.420005,746.560651,-9781.858789
44.454862,3043.670347,-593.420005,-10528.419440
44.457396,-1837.687757,57.427742,-9992.427178
44.459931,287.138712,1148.554848,-9418.149754
44.462465,-2507.678085,153.140646,-10470.991698
44.465000,1033.699363,-899.701298,-10566.704602
44.467535,-440.279358,1263.410333,-8767.302006
44.470069,0.000000,210.568389,-10049.854920
44.472604,-784.845813,593.420005,-10202.995566
44.475138,-631.705166,421.136778,-9820.143950
44.477673,344.566454,267.996131,-9609.575562
44.480208,-1569.691626,-267.996131,-10107.282662
44.482742,-3254.238736,-1933.400661,-10394.421374
44.485277,-76.570323,382.851616,-9131.011042
44.487811,-593.420005,382.851616,-9973.284597
44.490346,1263.410333,1301.695494,-9705.288466
44.492881,1244.267752,-1301.695494,-9973.284597
44.495422,-344.566454,-2431.107762,-10700.702667
44.497963,-2354.537438,-708.275490,-9456.434915
44.500504,7503.891674,6565.905214,-8250.452325
44.503045,-2928.814862,-1378.265818,-13016.954944
44.505586,9533.005238,1971.685822,-8173.882002
44.508127,-4153.940034,57.427742,-11064.411702
44.510668,-1856.830338,2411.965181,-9226.723946
44.513209,2641.676150,191.425808,-10011.569758
44.515750,114.855485,2220.539373,-9896.714274
44.518291,4096.512291,-76.570323,-10509.276859
44.520832,-267.996131,765.703232,-9762.716208
44.523373,133.998066,2067.398726,-9801.001370
44.525914,803.988394,401.994197,-10432.706536
44.528455,114.855485,803.988394,-9456.434915
44.530996,-287.138712,861.416136,-9762.716208
44.533537,-191.425808,976.271621,-9647.860723
44.536078,-133.998066,1339.980656,-9456.434915
44.538619,363.709035,1435.693560,-10298.708470
44.541160,1550.549045,1588.834206,-10011.569758
44.543701,2756.531635,3330.809059,-8977.870395
44.546242,401.994197,631.705166,-10241.280728
44.548783,-2890.529701,229.710970,-9973.284597
44.551324,1435.693560,1244.267752,-9322.436850
44.553865,4728.217458,3464.807125,-9475.577496
44.556406,-784.845813,210.568389,-11562.118803
44.558947,1607.976787,1761.117434,-8461.020714
44.561488,-7561.319416,-4249.652938,-12232.109131
44.564029,3541.377448,1646.261949,-7771.887805
44.566570,1205.982590,-880.558717,-10681.560086
44.569111,229.710970,2239.681954,-9303.294269
44.571652,-3598.805190,-1129.412267,-10834.700733
44.574193,-2565.105827,153.140646,-8843.872330
44.576734,1856.830338,229.710970,-9781.858789
44.579275,-689.132909,363.709035,-9839.286531
44.581816,421.136778,612.562586,-9743.573627
44.584357,-2660.818731,-19.142581,-10183.852986
44.586898,1512.263883,-306.281293,-10088.140082
44.589439,382.851616,1473.978722,-9360.722011
44.591980,-440.279358,-114.855485,-10604.989763
44.594521,363.709035,574.277424,-9877.571693
44.597067,-765.703232,-172.283227,-9801.001370
44.599613,-114.855485,133.998066,-9628.718142
44.602159,-1607.976787,-95.712904,-9915.856854
44.604705,-2316.252277,-2431.107762,-10911.271056
44.607251,1167.697429,631.705166,-9169.296203
44.609797,-172.283227,-76.570323,-10375.278794
44.612343,1091.127106,937.986459,-9533.005238
44.614890,191.425808,-516.849682,-9801.001370
44.617436,-2928.814862,-3081.955509,-11217.552349
44.619982,-229.710970,516.849682,-9915.856854
44.622528,4115.654872,4766.502619,-7235.895542
44.625074,114.855485,19.142581,-11657.831707
44.627620,4096.512291,-57.427742,-9475.577496
44.630166,-2775.674216,0.000000,-9877.571693
44.632712,-899.701298,2794.816797,-9303.294269
44.635258,2258.824534,784.845813,-10183.852986
44.637804,1205.982590,2641.676150,-9839.286531
44.640350,-1569.691626,459.421939,-10356.136213
44.642896,-1205.982590,-114.855485,-9284.151688
44.645443,1282.552914,1914.258080,-8039.883936
44.647989,-823.130974,555.134843,-10643.274925
44.650535,-76.570323,995.414202,-9877.571693
44.653081,1339.980656,727.418070,-9839.286531
44.655627,1244.267752,995.414202,-10030.712339
44.658173,1531.406464,957.129040,-10336.993632
44.660719,650.847747,727.418070,-10738.987829
44.663265,2373.680019,3349.951640,-9188.438784
44.665811,287.138712,2067.398726,-9667.003304
44.668357,-650.847747,210.568389,-10068.997501
44.670903,-1378.265818,689.132909,-9858.429112
44.673449,2622.533570,1282.552914,-9513.862658
44.675996,2143.969050,2277.967115,-9820.143950
44.678542,1129.412267,421.136778,-10662.417506
44.681088,-6604.190376,-3177.668413,-9379.864592
44.683634,114.855485,-1588.834206,-9973.284597
44.686180,2335.394858,1512.263883,-9877.571693
44.688726,2316.252277,-1454.836141,-11332.407834
44.691272,1990.828403,3847.658741,-8078.169098
44.693818,-3024.527766,-2373.680019,-11753.544611
44.696364,957.129040,1339.980656,-9915.856854
44.698915,2163.111630,-937.986459,-10394.421374
44.701466,-2488.535504,-19.142581,-10011.569758
44.704016,1971.685822,95.712904,-8920.442653
44.706567,-1607.976787,-248.853550,-10509.276859
44.709118,1627.119368,861.416136,-10432.706536
44.711669,-765.703232,287.138712,-9533.005238
44.714219,1607.976787,440.279358,-9590.432981
44.716770,-363.709035,-19.142581,-10375.278794
44.719321,-555.134843,172.283227,-10222.138147
44.721872,-95.712904,-612.562586,-10126.425243
44.724422,-2679.961312,-1416.550979,-9954.142016
44.726973,957.129040,-133.998066,-10088.140082
44.729524,1110.269686,535.992262,-10279.565890
44.732075,1129.412267,669.990328,-10356.136213
44.734625,555.134843,-191.425808,-9667.003304
44.737176,-229.710970,-3713.660675,-10643.274925
44.739727,-4115.654872,-287.138712,-8786.444587
44.742278,7657.032320,6967.899411,-7561.319416
44.744828,-1416.550979,1186.840010,-13265.808494
44.747379,7599.604578,191.425808,-9437.292334
44.749930,-2909.672282,-478.564520,-10068.997501
44.752480,-497.707101,1320.838075,-10241.280728
44.755031,3043.670347,2507.678085,-9150.153622
44.757582,-1531.406464,612.562586,-11006.983960
44.760133,2086.541307,344.566454,-10662.417506
44.762683,-76.570323,325.423874,-9839.286531
44.765234,535.992262,2584.248408,-8709.874264
44.767785,1531.406464,287.138712,-10949.556218
44.770336,267.996131,1435.693560,-9992.427178
44.772886,593.420005,1435.693560,-9820.143950
44.775437,-19.142581,287.138712,-10528.419440
44.777988,1320.838075,1703.689691,-9437.292334
44.780539,1856.830338,1071.984525,-9839.286531
44.783089,2201.396792,2947.957443,-9667.003304
44.785640,1033.699363,1416.550979,-9896.714274
44.788191,-191.425808,669.990328,-10298.708470
44.790742,-1895.115499,765.703232,-9896.714274
44.793292,5111.069074,1780.260014,-9628.718142
44.795843,1780.260014,3043.670347,-10126.425243
44.798394,2526.820666,459.421939,-11121.839445
44.800948,-9858.429112,-3828.516160,-9877.571693
44.803503,1167.697429,-861.416136,-8461.020714
44.806057,784.845813,2086.541307,-9896.714274
44.808611,1186.840010,-708.275490,-11849.257515
44.811166,516.849682,3503.092286,-7944.171032
44.813720,-4498.506488,-3101.098090,-11064.411702
44.816274,842.273555,1454.836141,-9150.153622
44.818829,2335.394858,-899.701298,-10911.271056
44.821383,-2373.680019,535.992262,-10547.562021
44.823937,248.853550,612.562586,-9073.583299
44.826491,-1454.836141,-516.849682,-9820.143950
44.829046,1780.260014,1205.982590,-9992.427178
44.831600,-1646.261949,-248.853550,-10260.423309
44.834154,440.279358,267.996131,-9150.153622
44.836709,382.851616,19.142581,-10126.425243
44.839263,-1761.117434,172.283227,-10164.710405
44.841817,-746.560651,-1416.550979,-10145.567824
44.844372,-1914.258080,-803.988394,-9954.142016
44.846926,-516.849682,-899.701298,-9973.284597
44.849480,-440.279358,440.279358,-9475.577496
44.852035,-612.562586,1186.840010,-9265.009107
44.854589,555.134843,-363.709035,-9571.290400
44.857143,-3541.377448,-1493.121302,-11523.833642
44.859698,-1703.689691,937.986459,-9552.147819
44.862252,-191.425808,1722.832272,-9456.434915
44.864806,7695.317482,3694.518094,-8958.727814
44.867361,-3905.086483,-1990.828403,-11064.411702
44.869915,-363.709035,-1378.265818,-9934.999435
44.872469,0.000000,6336.194245,-7637.889739
44.875024,440.279358,-1129.412267,-11772.687192
44.877578,5876.772306,2660.818731,-8729.016845
44.880132,-1512.263883,593.420005,-10968.698798
44.882687,-114.855485,650.847747,-10336.993632
44.885241,727.418070,1110.269686,-9111.868461
44.887795,-708.275490,1320.838075,-9609.575562
44.890350,1971.685822,401.994197,-10585.847182
44.892904,-689.132909,1359.123237,-10279.565890
44.895458,2354.537438,1225.125171,-9954.142016
44.898013,229.710970,842.273555,-10164.710405
44.900567,1416.550979,2105.683888,-9781.858789
44.903125,2584.248408,2335.394858,-9762.716208
44.905682,-1665.404530,555.134843,-10662.417506
44.908240,38.285162,1339.980656,-9437.292334
44.910797,1091.127106,1052.841944,-9686.145885
44.913355,1741.974853,2009.970984,-9820.143950
44.915913,1627.119368,1512.263883,-9992.427178
44.918470,-918.843878,650.847747,-8748.159426
44.921028,-5876.772306,-3694.518094,-11944.970419
44.923585,4077.369710,1722.832272,-10068.997501
44.926143,1378.265818,-1263.410333,-12059.825904
44.928701,2641.676150,3598.805190,-7561.319416
44.931258,-4460.221326,-2909.672282,-11906.685258
44.933816,210.568389,823.130974,-9647.860723
44.936374,1952.543242,-1110.269686,-10490.134278
44.938931,-1665.404530,421.136778,-9284.151688
44.941489,1627.119368,95.712904,-9724.431046
44.944046,-2526.820666,191.425808,-10298.708470
44.946604,1588.834206,803.988394,-10183.852986
44.949162,-1263.410333,114.855485,-9705.288466
44.951719,-19.142581,153.140646,-9188.438784
44.954277,-153.140646,631.705166,-9954.142016
44.956834,-976.271621,19.142581,-10528.419440
44.959392,-1148.554848,38.285162,-9513.862658
44.961950,-2928.814862,-1129.412267,-9973.284597
44.964507,1071.984525,229.710970,-9322.436850
44.967065,-1607.976787,1052.841944,-10088.140082
44.969622,1320.838075,1397.408398,-9533.005238
44.972180,-612.562586,-4077.369710,-10241.280728
44.974738,-3962.514226,1320.838075,-9073.583299
44.977295,3062.812928,4613.361973,-9533.005238
44.979853,-1493.121302,1339.980656,-10777.272990
44.982410,8614.161360,3924.229064,-8441.878133
44.984968,-5111.069074,-2029.113565,-12098.111066
44.987526,344.566454,650.847747,-9839.286531
44.990083,995.414202,5761.916821,-8307.880067
44.992641,-650.847747,-459.421939,-10681.560086
44.995199,4498.506488,1761.117434,-8652.446522
44.997756,-555.134843,746.560651,-10509.276859
45.000314,153.140646,2086.541307,-10375.278794
45.002871,478.564520,-114.855485,-10164.710405
45.005432,-1129.412267,1320.838075,-8671.589102
45.007993,995.414202,880.558717,-10183.852986
45.010553,1550.549045,574.277424,-10011.569758
45.013114,861.416136,1837.687757,-8901.300072
45.015674,1033.699363,1818.545176,-10279.565890
45.018235,2660.818731,2067.398726,-9686.145885
45.020795,631.705166,1512.263883,-9265.009107
45.023356,-1014.556782,344.566454,-10107.282662
45.025917,-918.843878,325.423874,-9667.003304
45.028477,5417.350366,1703.689691,-9437.292334
45.031038,-1320.838075,1339.980656,-10451.849117
45.033598,3177.668413,2890.529701,-8729.016845
45.036159,-10777.272990,-5340.780043,-11983.255581
45.038719,3292.523898,497.707101,-7350.751027
45.041280,0.000000,880.558717,-10260.423309
45.043841,-248.853550,1856.830338,-10202.995566
45.046401,-2660.818731,-363.709035,-9379.864592
45.048962,-5149.354235,-1818.545176,-9609.575562
45.051522,1378.265818,1091.127106,-9054.440718
45.054083,823.130974,478.564520,-10107.282662
45.056644,-727.418070,1320.838075,-10011.569758
45.059204,-3043.670347,229.710970,-10030.712339
45.061765,191.425808,-344.566454,-9590.432981
45.064325,-172.283227,1225.125171,-9111.868461
45.066886,325.423874,382.851616,-10298.708470
45.069446,516.849682,1129.412267,-10088.140082
45.072007,-1071.984525,-708.275490,-10241.280728
45.074568,-631.705166,363.709035,-9360.722011
45.077128,-2354.537438,-1569.691626,-10604.989763
45.079689,593.420005,401.994197,-9552.147819
45.082249,-133.998066,191.425808,-10375.278794
45.084810,267.996131,1033.699363,-9647.860723
45.087370,1091.127106,-287.138712,-9705.288466
45.089931,-2737.389054,-976.271621,-11849.257515
45.092492,-2775.674216,1186.840010,-9571.290400
45.095052,459.421939,2641.676150,-8154.739421
45.097613,5934.200048,3254.238736,-9475.577496
45.100173,-2411.965181,-2239.681954,-11332.407834
45.102734,-708.275490,-765.703232,-9475.577496
45.105295,-765.703232,5972.485210,-8269.594906
45.107857,918.843878,-1359.123237,-12021.540742
45.110420,3713.660675,2833.101958,-8384.450390
45.112982,-516.849682,267.996131,-11026.126541
45.115545,-267.996131,1263.410333,-10528.419440
45.118108,3503.092286,823.130974,-9533.005238
45.120670,-1397.408398,1569.691626,-9705.288466
45.123233,1627.119368,-172.283227,-10796.415571
45.125796,516.849682,861.416136,-9743.573627
45.128358,1071.984525,1014.556782,-9245.866526
45.130921,1971.685822,1359.123237,-10164.710405
45.133484,1856.830338,1531.406464,-10011.569758
45.136046,1550.549045,1933.400661,-9322.436850
45.138609,-1454.836141,-325.423874,-10279.565890
45.141172,-459.421939,1225.125171,-9265.009107
45.143734,4938.785846,1493.121302,-10145.567824
45.146297,-1071.984525,1512.263883,-10604.989763
45.148860,3828.516160,2411.965181,-9284.151688
45.151422,-9724.431046,-3388.236802,-11006.983960
45.153985,1512.263883,-1052.841944,-8575.876198
45.156548,344.566454,842.273555,-10604.989763
45.159110,2928.814862,574.277424,-9647.860723
45.161673,-4134.797453,-401.994197,-9896.714274
45.164236,-1627.119368,-1339.980656,-9839.286531
45.166798,784.845813,899.701298,-9552.147819
45.169361,1741.974853,612.562586,-10604.989763
45.171924,-516.849682,784.845813,-10470.991698
45.174486,-708.275490,172.283227,-9973.284597
45.177049,1320.838075,210.568389,-9475.577496
45.179612,593.420005,382.851616,-9513.862658
45.182174,401.994197,-401.994197,-10490.134278
45.184737,363.709035,631.705166,-9973.284597
45.187299,-114.855485,-478.564520,-10049.854920
45.189862,-1301.695494,-287.138712,-9571.290400
45.192425,-1129.412267,-1569.691626,-10604.989763
45.194987,172.283227,459.421939,-9533.005238
45.197550,-574.277424,976.271621,-10164.710405
45.200113,1148.554848,-191.425808,-9762.716208
45.202675,-248.853550,-3369.094221,-10088.140082
45.205238,-2947.957443,1741.974853,-9456.434915
45.207801,3215.953574,3215.953574,-10528.419440
45.210365,-2105.683888,746.560651,-10604.989763
45.212930,8997.012976,3924.229064,-8059.026517
45.215494,-4843.072942,-1627.119368,-11408.978157
45.218059,-1167.697429,650.847747,-10432.706536
45.220624,1550.549045,4498.506488,-8327.022648
45.223188,-363.709035,-382.851616,-11313.265253
45.225753,5340.780043,1665.404530,-8556.733618
45.228318,-1818.545176,153.140646,-10413.563955
45.230882,1435.693560,2048.256146,-10222.138147
45.233447,421.136778,-19.142581,-10068.997501
45.236012,-803.988394,1244.267752,-8499.305875
45.238576,-19.142581,1646.261949,-9590.432981
45.241141,-440.279358,708.275490,-10604.989763
45.243706,1091.127106,1397.408398,-9858.429112
45.246271,1071.984525,2507.678085,-9801.001370
45.248835,2239.681954,2469.392923,-9552.147819
45.251400,-363.709035,1339.980656,-9973.284597
45.253965,-153.140646,1071.984525,-10049.854920
45.256529,1914.258080,1225.125171,-9513.862658
45.259094,-574.277424,708.275490,-10470.991698
45.261659,2660.818731,2718.246474,-9150.153622
45.264223,-6604.190376,-2565.105827,-9552.147819
45.266788,-1186.840010,-1761.117434,-9724.431046
45.269353,1837.687757,612.562586,-9724.431046
45.271918,1397.408398,-401.994197,-11294.122672
45.274482,2105.683888,3503.092286,-8059.026517
45.277047,-4594.219392,-2909.672282,-10375.278794
45.279612,-555.134843,1359.123237,-8958.727814
45.282176,1435.693560,-57.427742,-10509.276859
45.284741,-2794.816797,363.709035,-10030.712339
45.287306,210.568389,-401.994197,-9054.440718
45.289870,-1435.693560,267.996131,-9896.714274
45.292435,1225.125171,1512.263883,-10107.282662
45.295000,-1052.841944,-612.562586,-10336.993632
45.297565,497.707101,650.847747,-9571.290400
45.300129,-1033.699363,76.570323,-9571.290400
45.302694,-1263.410333,-1225.125171,-10356.136213
45.305259,-1684.547110,-957.129040,-9801.001370
45.307823,784.845813,-38.285162,-10202.995566
45.310388,-1473.978722,1091.127106,-10298.708470
45.312954,1684.547110,995.414202,-9820.143950
45.315520,-172.283227,-1722.832272,-9494.720077
45.318086,-3445.664544,133.998066,-9954.142016
45.320651,3369.094221,4651.647134,-9647.860723
45.323217,-995.414202,1531.406464,-10719.845248
45.325783,7771.887805,3235.096155,-8786.444587
45.328349,-4230.510357,-2603.390989,-11274.980091
45.330915,-880.558717,555.134843,-9590.432981
45.333481,555.134843,5130.211654,-8499.305875
45.336047,-210.568389,191.425808,-11408.978157
45.338612,4938.785846,1282.552914,-8824.729749
45.341178,-2565.105827,1071.984525,-10011.569758
45.343744,2201.396792,1588.834206,-10432.706536
45.346310,-918.843878,95.712904,-9686.145885
45.348876,-421.136778,1014.556782,-8901.300072
45.351442,1512.263883,1110.269686,-10394.421374
45.354007,-325.423874,1493.121302,-9781.858789
45.356573,1454.836141,746.560651,-10126.425243
45.359139,1493.121302,2603.390989,-9590.432981
45.361705,3503.092286,2220.539373,-9839.286531
45.364271,-1837.687757,1244.267752,-10260.423309
45.366837,-306.281293,957.129040,-9628.718142
45.369403,2603.390989,1167.697429,-9609.575562
45.371968,-593.420005,1607.976787,-10222.138147
45.374534,3560.520029,3177.668413,-9456.434915
45.377100,-7427.321350,-3617.947771,-10126.425243
45.379666,1359.123237,-172.283227,-8078.169098
45.382232,1665.404530,1665.404530,-11255.837510
45.384798,2067.398726,440.279358,-11351.550414
45.387364,38.285162,1914.258080,-8690.731683
45.389929,-3713.660675,-3139.383251,-10547.562021
45.392495,-38.285162,133.998066,-10298.708470
45.395061,1531.406464,631.705166,-10279.565890
45.397627,-1148.554848,229.710970,-10011.569758
45.400193,-1263.410333,-382.851616,-9973.284597
45.402759,-114.855485,172.283227,-9571.290400
45.405325,306.281293,497.707101,-9590.432981
45.407890,-267.996131,-363.709035,-10222.138147
45.410456,248.853550,0.000000,-10317.851051
45.413022,-1550.549045,-325.423874,-10566.704602
45.415589,-459.421939,-191.425808,-9494.720077
45.418156,-1301.695494,-1875.972918,-10585.847182
45.420723,363.709035,708.275490,-9724.431046
45.423290,325.423874,210.568389,-10202.995566
45.425857,1397.408398,650.847747,-9284.151688
45.428424,-689.132909,-3311.666478,-11734.402030
45.430990,-3101.098090,1473.978722,-9896.714274
45.433557,2794.816797,3349.951640,-8403.592971
45.436124,2450.250342,2813.959378,-10241.280728
45.438691,3235.096155,-1397.408398,-10336.993632
45.441258,-2679.961312,-1186.840010,-9494.720077
45.443825,-669.990328,3694.518094,-9265.009107
45.446392,1416.550979,2124.826469,-10356.136213
45.448959,1914.258080,746.560651,-10107.282662
45.451526,1741.974853,1129.412267,-10222.138147
45.454093,-210.568389,746.560651,-10202.995566
45.456660,1607.976787,1933.400661,-8499.305875
45.459226,-1071.984525,0.000000,-10700.702667
45.461793,1493.121302,861.416136,-9858.429112
45.464360,746.560651,1014.556782,-9686.145885
45.466927,708.275490,-95.712904,-10107.282662
45.469494,2297.109696,3120.240670,-9245.866526
45.472061,2756.531635,1875.972918,-10432.706536
45.474628,-803.988394,1971.685822,-10030.712339
45.477195,-382.851616,765.703232,-9686.145885
45.479762,1914.258080,440.279358,-9762.716208
45.482329,593.420005,918.843878,-10011.569758
45.484896,3388.236802,2967.100024,-9552.147819
45.487462,-4594.219392,-1971.685822,-9724.431046
45.490029,-1665.404530,-2986.242605,-10719.845248
45.492596,650.847747,1627.119368,-9533.005238
45.495163,1550.549045,-191.425808,-11160.124606
45.497730,1378.265818,2411.965181,-8327.022648
45.500297,-5666.203917,-3101.098090,-10892.128475
45.502864,114.855485,861.416136,-9150.153622
45.505431,2048.256146,-267.996131,-10279.565890
45.507998,-2373.680019,306.281293,-10011.569758
45.510565,1646.261949,287.138712,-9265.009107
45.513131,-1110.269686,-57.427742,-10049.854920
45.515698,842.273555,421.136778,-9877.571693
45.518266,-899.701298,287.138712,-9533.005238
45.520834,1052.841944,229.710970,-9934.999435
45.523402,-976.271621,363.709035,-10145.567824
45.525970,-1014.556782,-1033.699363,-10222.138147
45.528538,-803.988394,-1493.121302,-9896.714274
45.531106,976.271621,-229.710970,-9915.856854
45.533674,-478.564520,1607.976787,-9628.718142
45.536242,1875.972918,535.992262,-9073.583299
45.538810,-2067.398726,-3656.232933,-11925.827838
45.541378,-3713.660675,363.709035,-9092.725880
45.543945,4900.500685,6106.483275,-7408.178770
45.546513,-861.416136,1895.115499,-11581.261384
45.549081,5666.203917,-765.703232,-9609.575562
45.551649,-4039.084549,191.425808,-9973.284597
45.554217,-459.421939,3522.234867,-8863.014910
45.556785,957.129040,1014.556782,-11006.983960
45.559353,2928.814862,2086.541307,-9533.005238
45.561921,363.709035,363.709035,-10183.852986
45.564489,-382.851616,153.140646,-10375.278794
45.567057,535.992262,2603.390989,-8690.731683
45.569625,210.568389,-191.425808,-10662.417506
45.572192,95.712904,1588.834206,-9571.290400
45.574760,-344.566454,459.421939,-9954.142016
45.577328,823.130974,1416.550979,-9667.003304
45.579896,2258.824534,2641.676150,-9456.434915
45.582464,1627.119368,1914.258080,-10394.421374
45.585032,-1244.267752,727.418070,-9571.290400
45.587600,-153.140646,574.277424,-8939.585234
45.590168,2373.680019,344.566454,-9781.858789
45.592736,-440.279358,478.564520,-10509.276859
45.595304,3962.514226,4517.649069,-8499.305875
45.597872,-8863.014910,-5283.352301,-12117.253646
45.600439,-325.423874,-976.271621,-7714.460062
45.603007,1895.115499,765.703232,-10049.854920
45.605575,363.709035,2009.970984,-10911.271056
45.608143,1569.691626,631.705166,-9590.432981
45.610711,-4843.072942,-1761.117434,-9284.151688
45.613279,497.707101,-133.998066,-9877.571693
45.615847,995.414202,957.129040,-10011.569758
45.618415,-95.712904,-57.427742,-10490.134278
45.620984,-842.273555,76.570323,-9609.575562
45.623553,1225.125171,287.138712,-10260.423309
45.626121,-574.277424,1359.123237,-9877.571693
45.628690,-248.853550,-440.279358,-10011.569758
45.631259,-229.710970,1512.263883,-9667.003304
45.633828,-1263.410333,-1033.699363,-10470.991698
45.636397,-727.418070,-1071.984525,-9762.716208
45.638966,287.138712,210.568389,-10336.993632
45.641535,-1722.832272,478.564520,-10834.700733
45.644104,2124.826469,1071.984525,-9073.583299
45.646672,-765.703232,-1722.832272,-9284.151688
45.649241,-3120.240670,-842.273555,-10911.271056
45.651810,1014.556782,3464.807125,-10356.136213
45.654379,-95.712904,2182.254211,-9073.583299
45.656948,10356.136213,4594.219392,-7580.461997
45.659517,-4977.071008,-2545.963246,-12040.683323
45.662086,114.855485,363.709035,-10145.567824
45.664655,-133.998066,4900.500685,-8327.022648
45.667224,-153.140646,-248.853550,-11485.548480
45.669792,4823.930362,1837.687757,-8805.587168
45.672361,-3694.518094,172.283227,-10011.569758
45.674930,842.273555,1493.121302,-10088.140082
45.677499,-478.564520,-325.423874,-10183.852986
45.680068,1167.697429,1512.263883,-9226.723946
45.682637,-133.998066,1110.269686,-10202.995566
45.685206,267.996131,478.564520,-10183.852986
45.687775,2718.246474,2086.541307,-9494.720077
45.690343,76.570323,2029.113565,-9667.003304
45.692912,2794.816797,2584.248408,-9858.429112
45.695481,-1990.828403,1129.412267,-9839.286531
45.698050,3235.096155,918.843878,-10260.423309
45.700619,593.420005,1397.408398,-10490.134278
45.703188,4173.082614,3388.236802,-9973.284597
45.705757,-4862.215523,-2450.250342,-9762.716208
45.708326,-937.986459,-1665.404530,-10011.569758
45.710894,2067.398726,-344.566454,-10049.854920
45.713463,1033.699363,-650.847747,-10930.413637
45.716032,3560.520029,3464.807125,-9035.298138
45.718601,-4996.213589,-2392.822600,-10260.423309
45.721170,-1301.695494,478.564520,-8863.014910
45.723739,2431.107762,803.988394,-9858.429112
45.726308,-2239.681954,38.285162,-10356.136213
45.728878,267.996131,-287.138712,-8824.729749
45.731447,-1493.121302,363.709035,-9399.007173
45.734016,880.558717,1071.984525,-10643.274925
45.736585,-1378.265818,-1282.552914,-10968.698798
45.739155,-631.705166,1780.260014,-8786.444587
45.741724,-995.414202,-1244.267752,-10681.560086
45.744293,-1110.269686,-574.277424,-9609.575562
45.746862,-1339.980656,-1741.974853,-10509.276859
45.749432,344.566454,1397.408398,-9743.573627
45.752001,-516.849682,191.425808,-10298.708470
45.754570,1148.554848,-708.275490,-8671.589102
45.757139,-3503.092286,-1091.127106,-9628.718142
45.759709,2947.957443,4383.651003,-10298.708470
45.762278,-1971.685822,1799.402595,-10815.558152
45.764847,9609.575562,5015.356170,-8173.882002
45.767416,-4843.072942,-2737.389054,-12021.540742
45.769985,1244.267752,-1531.406464,-10222.138147
45.772555,-114.855485,6565.905214,-7848.458128
45.775124,1244.267752,-746.560651,-12155.538808
45.777693,4651.647134,421.136778,-9590.432981
45.780262,-2469.392923,823.130974,-9724.431046
45.782832,1244.267752,2220.539373,-9877.571693
45.785401,1205.982590,-535.992262,-9973.284597
45.787970,38.285162,1933.400661,-9245.866526
45.790539,995.414202,631.705166,-10432.706536
45.793109,-306.281293,306.281293,-9686.145885
45.795678,2928.814862,1856.830338,-9322.436850
45.798247,1282.552914,2124.826469,-9705.288466
45.800816,861.416136,2373.680019,-9954.142016
45.803385,-1550.549045,1435.693560,-9552.147819
45.805955,3330.809059,1416.550979,-9303.294269
45.808524,-746.560651,1569.691626,-10604.989763
45.811093,4115.654872,4192.225195,-8939.585234
45.813662,-9954.142016,-4632.504554,-11772.687192
45.816232,1320.838075,-497.707101,-7944.171032
45.818801,-459.421939,957.129040,-9628.718142
45.821370,708.275490,2143.969050,-10528.419440
45.823939,-1071.984525,1933.400661,-9284.151688
45.826488,-1895.115499,-1052.841944,-9188.438784
45.829036,-287.138712,555.134843,-9896.714274
45.831584,1033.699363,1129.412267,-9801.001370
45.834132,-612.562586,-57.427742,-10528.419440
45.836680,-1339.980656,306.281293,-9858.429112
45.839229,153.140646,-76.570323,-10279.565890
45.841777,-995.414202,1856.830338,-8595.018779
45.844325,-363.709035,-1033.699363,-10624.132344
45.846873,-172.283227,1588.834206,-9265.009107
45.849422,-2048.256146,-1933.400661,-10777.272990
45.851970,-1703.689691,-1971.685822,-10164.710405
45.854518,76.570323,-229.710970,-9265.009107
45.857066,-535.992262,842.273555,-10394.421374
45.859615,2852.244539,1225.125171,-9226.723946
45.862163,-3139.383251,-3675.375514,-11466.405899
45.864711,-4364.508422,-95.712904,-8977.870395
45.867259,3426.521963,3522.234867,-9016.155557
45.869807,2794.816797,3732.803256,-10241.280728
45.872356,1761.117434,-2201.396792,-10432.706536
45.874904,-2048.256146,-937.986459,-9705.288466
45.877452,-95.712904,3943.371645,-9092.725880
45.880000,1627.119368,1473.978722,-10758.130410
45.882549,2871.387120,1952.543242,-9628.718142
45.885097,1244.267752,382.851616,-10222.138147
45.887645,114.855485,478.564520,-10968.698798
45.890193,2507.678085,2067.398726,-8556.733618
45.892741,-1454.836141,650.847747,-10911.271056
45.895290,1856.830338,1071.984525,-10011.569758
45.897838,803.988394,1148.554848,-9877.571693
45.900386,1952.543242,1493.121302,-10356.136213
45.902934,2354.537438,2718.246474,-9992.427178
45.905483,2048.256146,2947.957443,-10107.282662
45.908031,-574.277424,1627.119368,-9303.294269
45.910579,1091.127106,76.570323,-9858.429112
45.913127,95.712904,2029.113565,-9954.142016
45.915675,2565.105827,3483.949706,-9896.714274
45.918224,-4594.219392,-2526.820666,-9667.003304
45.920772,-1378.265818,-3081.955509,-9705.288466
45.923320,1741.974853,-325.423874,-10030.712339
45.925868,1875.972918,0.000000,-11179.267187
45.928420,191.425808,1722.832272,-8250.452325
45.930972,-4766.502619,-3349.951640,-10585.847182
45.933524,-382.851616,229.710970,-8843.872330
45.936075,1550.549045,248.853550,-10011.569758
45.938627,-2431.107762,306.281293,-9954.142016
45.941179,1205.982590,-1244.267752,-9686.145885
45.943730,-1684.547110,765.703232,-9360.722011
45.946282,669.990328,784.845813,-10470.991698
45.948834,-1665.404530,-861.416136,-10317.851051
45.951386,459.421939,1378.265818,-9092.725880
45.953937,-2163.111630,-1684.547110,-10892.128475
45.956489,-1071.984525,-1646.261949,-9494.720077
45.959041,1014.556782,-957.129040,-10011.569758
45.961592,-612.562586,325.423874,-10796.415571
45.964144,4364.508422,2469.392923,-9533.005238
45.966696,-2277.967115,-2679.961312,-11428.120738
45.969248,-1818.545176,-1186.840010,-9571.290400
45.971799,3560.520029,4287.938099,-7312.465866
45.974351,1244.267752,2756.531635,-11140.982026
45.976903,5283.352301,229.710970,-9781.858789
45.979454,-3713.660675,-2354.537438,-10432.706536
45.982006,95.712904,4153.940034,-8767.302006
45.984558,1952.543242,1627.119368,-10643.274925
45.987110,937.986459,2545.963246,-9284.151688
45.989661,976.271621,-19.142581,-10279.565890
45.992213,-535.992262,1301.695494,-10183.852986
45.994765,2220.539373,2143.969050,-8920.442653
45.997316,-153.140646,344.566454,-10758.130410
45.999868,765.703232,1914.258080,-10107.282662
46.002420,229.710970,1263.410333,-9801.001370
46.004972,2163.111630,880.558717,-9628.718142
46.007523,1244.267752,2220.539373,-10030.712339
46.010075,38.285162,1646.261949,-9724.431046
46.012627,229.710970,918.843878,-9456.434915
46.015178,1454.836141,1033.699363,-9801.001370
46.017730,-1359.123237,153.140646,-10758.130410
46.020282,4766.502619,4498.506488,-8767.302006
46.022834,-7350.751027,-3541.377448,-10853.843314
46.025385,-306.281293,-1301.695494,-8824.729749
46.027937,957.129040,-746.560651,-10719.845248
46.030492,229.710970,2794.816797,-10088.140082
46.033047,1091.127106,191.425808,-10107.282662
46.035602,-5436.492947,-1684.547110,-9418.149754
46.038157,1320.838075,-267.996131,-10049.854920
46.040711,0.000000,1014.556782,-9896.714274
46.043266,-1071.984525,-650.847747,-10317.851051
46.045821,-19.142581,689.132909,-8748.159426
46.048376,-555.134843,-516.849682,-10490.134278
46.050931,-38.285162,459.421939,-9973.284597
46.053486,-1359.123237,-382.851616,-10126.425243
46.056041,-325.423874,363.709035,-9686.145885
46.058596,-1320.838075,-38.285162,-9762.716208
46.061150,-1473.978722,-1933.400661,-10509.276859
46.063705,-1378.265818,-38.285162,-9915.856854
46.066260,1359.123237,1416.550979,-9820.143950
46.068815,19.142581,191.425808,-9533.005238
46.071370,-1435.693560,95.712904,-10202.995566
46.073925,-669.990328,2335.394858,-10796.415571
46.076480,344.566454,2699.103893,-9475.577496
46.079035,7178.467800,4613.361973,-8901.300072
46.081589,-2526.820666,-1531.406464,-11006.983960
46.084144,-248.853550,-2048.256146,-10088.140082
46.086699,-133.998066,5666.203917,-8422.735552
46.089254,2048.256146,267.996131,-11849.257515
46.091809,4115.654872,1703.689691,-8652.446522
46.094364,-1435.693560,899.701298,-10470.991698
46.096919,1339.980656,2660.818731,-10088.140082
46.099474,2909.672282,172.283227,-10490.134278
46.102028,-669.990328,1512.263883,-9667.003304
46.104583,1033.699363,172.283227,-10681.560086
46.107138,823.130974,1722.832272,-8901.300072
46.109693,957.129040,803.988394,-10030.712339
46.112248,2258.824534,3388.236802,-10126.425243
46.114803,803.988394,1646.261949,-10222.138147
46.117358,555.134843,631.705166,-9705.288466
46.119913,784.845813,248.853550,-9762.716208
46.122467,2411.965181,2105.683888,-10202.995566
46.125022,1990.828403,2258.824534,-9150.153622
46.127577,-6374.479406,-4249.652938,-12174.681389
46.130132,2411.965181,-497.707101,-8422.735552
46.132689,1320.838075,-612.562586,-10470.991698
46.135247,3215.953574,4460.221326,-8173.882002
46.137804,-4555.934230,-3407.379382,-11925.827838
46.140361,-478.564520,133.998066,-9150.153622
46.142919,2009.970984,0.000000,-10624.132344
46.145476,-1378.265818,1205.982590,-9839.286531
46.148033,669.990328,-344.566454,-9743.573627
46.150590,-2220.539373,133.998066,-9475.577496
46.153148,727.418070,459.421939,-10126.425243
46.155705,612.562586,57.427742,-9475.577496
46.158262,-861.416136,19.142581,-10088.140082
46.160820,-19.142581,153.140646,-10585.847182
46.163377,-2373.680019,-1454.836141,-9839.286531
46.165934,918.843878,-1320.838075,-10241.280728
46.168491,-612.562586,1148.554848,-9915.856854
46.171049,4421.936165,2488.535504,-9379.864592
46.173606,-4039.084549,-1933.400661,-11121.839445
46.176163,-1933.400661,631.705166,-10241.280728
46.178721,3369.094221,5417.350366,-7523.034254
46.181278,2469.392923,2067.398726,-11351.550414
46.183835,2641.676150,-267.996131,-9456.434915
46.186393,-2450.250342,-2124.826469,-10317.851051
46.188950,-612.562586,4670.789715,-8690.731683
46.191507,2545.963246,-421.136778,-11944.970419
46.194064,2756.531635,1875.972918,-8480.163294
46.196622,19.142581,-57.427742,-10566.704602
46.199179,-612.562586,1435.693560,-9896.714274
46.201736,1799.402595,1110.269686,-9054.440718
46.204294,-114.855485,497.707101,-10241.280728
46.206851,1569.691626,1856.830338,-10222.138147
46.209408,0.000000,191.425808,-9743.573627
46.211965,2201.396792,2373.680019,-9456.434915
46.214523,2258.824534,2507.678085,-10241.280728
46.217080,-306.281293,2009.970984,-10011.569758
46.219637,1780.260014,1569.691626,-9647.860723
46.222195,-3062.812928,-133.998066,-10968.698798
46.224752,6489.334891,4402.793584,-9111.868461
46.227309,-5130.211654,-2297.109696,-10068.997501
46.229866,-363.709035,-2890.529701,-10394.421374
46.232424,1780.260014,803.988394,-9475.577496
46.234983,76.570323,-1033.699363,-11791.829773
46.237542,5034.498750,3828.516160,-7542.176835
46.240102,-5359.922624,-3847.658741,-12174.681389
46.242662,344.566454,-210.568389,-9628.718142
46.245221,1627.119368,287.138712,-10394.421374
46.247781,-1148.554848,535.992262,-10107.282662
46.250340,631.705166,-153.140646,-9724.431046
46.252900,-1416.550979,38.285162,-9820.143950
46.255460,1052.841944,1397.408398,-10145.567824
46.258019,-937.986459,-574.277424,-10356.136213
46.260579,114.855485,363.709035,-9456.434915
46.263139,-2124.826469,-612.562586,-10432.706536
46.265698,-1033.699363,-2277.967115,-9820.143950
46.268258,650.847747,-114.855485,-9915.856854
46.270817,-210.568389,842.273555,-10183.852986
46.273377,3292.523898,-823.130974,-9494.720077
46.275937,-3981.656806,-210.568389,-10279.565890
46.278496,1493.121302,2182.254211,-11064.411702
46.281056,593.420005,2469.392923,-9226.723946
46.283615,10298.708470,6029.912952,-7561.319416
46.286175,-5283.352301,-2813.959378,-11810.972354
46.288735,1071.984525,-1071.984525,-10202.995566
46.291294,382.851616,5819.344563,-8346.165229
46.293854,1569.691626,-191.425808,-11581.261384
46.296413,4804.787781,1091.127106,-9207.581365
46.298973,-2105.683888,1014.556782,-10260.423309
46.301533,1110.269686,1627.119368,-10643.274925
46.304092,-650.847747,-114.855485,-9245.866526
46.306652,1818.545176,1895.115499,-9399.007173
46.309212,823.130974,1071.984525,-10662.417506
46.311771,1148.554848,210.568389,-10241.280728
46.314331,2411.965181,2335.394858,-9590.432981
46.316892,1263.410333,2660.818731,-9513.862658
46.319454,842.273555,1531.406464,-9954.142016
46.322015,2603.390989,1799.402595,-9686.145885
46.324577,-612.562586,-344.566454,-11198.409768
46.327138,4709.074877,5589.633594,-8097.311678
46.329699,-7025.327154,-4804.787781,-12538.390424
46.332261,-191.425808,19.142581,-7848.458128
46.334822,803.988394,-1033.699363,-10892.128475
46.337384,-38.285162,3215.953574,-9877.571693
46.339945,880.558717,229.710970,-10068.997501
46.342507,-5034.498750,-1301.695494,-8441.878133
46.345068,1818.545176,0.000000,-10241.280728
46.347630,-114.855485,1588.834206,-10222.138147
46.350191,153.140646,-899.701298,-10528.419440
46.352753,-2067.398726,1569.691626,-8863.014910
46.355314,-612.562586,-535.992262,-10566.704602
46.357876,0.000000,1033.699363,-9322.436850
46.360437,-1493.121302,-574.277424,-10183.852986
46.362998,-823.130974,95.712904,-10356.136213
46.365560,-2450.250342,-765.703232,-9628.718142
46.368121,-765.703232,-1588.834206,-10432.706536
46.370683,-1186.840010,937.986459,-9092.725880
46.373244,3617.947771,995.414202,-9896.714274
46.375806,-4249.652938,-1914.258080,-11236.694930
46.378367,-3905.086483,-2086.541307,-9743.573627
46.380929,3522.234867,6738.188442,-6183.053598
46.383490,4402.793584,2105.683888,-10336.993632
46.386052,1110.269686,-210.568389,-9533.005238
46.388613,-1684.547110,-2756.531635,-10643.274925
46.391175,-593.420005,5130.211654,-8346.165229
46.393736,2775.674216,-210.568389,-11676.974288
46.396297,1627.119368,2986.242605,-8614.161360
46.398859,957.129040,-287.138712,-10738.987829
46.401420,-631.705166,1320.838075,-9954.142016
46.403982,1627.119368,842.273555,-8805.587168
46.406543,-803.988394,976.271621,-9896.714274
46.409105,1167.697429,746.560651,-10413.563955
46.411666,-248.853550,1607.976787,-9437.292334
46.414228,1339.980656,1933.400661,-9686.145885
46.416789,1780.260014,3790.230998,-9494.720077
46.419351,-421.136778,957.129040,-10298.708470
46.421912,3158.525832,2526.820666,-9035.298138
46.424474,-4058.227130,-784.845813,-11925.827838
46.427035,6068.198114,5359.922624,-8154.739421
46.429596,-8135.596840,-3483.949706,-10968.698798
46.432158,842.273555,-1091.127106,-8633.303941
46.434719,535.992262,-133.998066,-10432.706536
46.437281,440.279358,880.558717,-11140.982026
46.439844,2182.254211,2201.396792,-8614.161360
46.442407,-5072.783912,-2469.392923,-10758.130410
46.444970,1895.115499,191.425808,-9743.573627
46.447533,306.281293,440.279358,-10317.851051
46.450097,-248.853550,153.140646,-10413.563955
46.452660,172.283227,1167.697429,-9533.005238
46.455223,-306.281293,-708.275490,-10547.562021
46.457786,38.285162,593.420005,-9150.153622
46.460349,-593.420005,153.140646,-10068.997501
46.462912,-344.566454,842.273555,-9877.571693
46.465475,-2163.111630,-1301.695494,-10394.421374
46.468038,-3215.953574,-1454.836141,-9839.286531
46.470602,-325.423874,1148.554848,-8748.159426
46.473165,2067.398726,631.705166,-9341.579430
46.475728,-3407.379382,-2526.820666,-11523.833642
46.478291,-4230.510357,-19.142581,-9092.725880
46.480854,5245.067139,5570.491013,-7159.325219
46.483417,-1110.269686,1627.119368,-11581.261384
46.485980,153.140646,-76.570323,-9801.001370
46.488544,-650.847747,-2545.963246,-10183.852986
46.491107,-1569.691626,5034.498750,-8671.589102
46.493670,1588.834206,191.425808,-11696.116869
46.496233,2048.256146,2986.242605,-8250.452325
46.498796,325.423874,-459.421939,-10585.847182
46.501359,-401.994197,1110.269686,-10202.995566
46.503922,1378.265818,1550.549045,-8805.587168
46.506486,-459.421939,1799.402595,-9628.718142
46.509049,1933.400661,803.988394,-10911.271056
46.511612,-114.855485,1263.410333,-9667.003304
46.514175,2718.246474,1895.115499,-9667.003304
46.516738,2316.252277,3771.088418,-9571.290400
46.519301,1110.269686,612.562586,-10624.132344
46.521866,3464.807125,2469.392923,-9379.864592
46.524430,-3369.094221,689.132909,-11676.974288
46.526994,4153.940034,5704.489078,-8001.598774
46.529559,-7235.895542,-5149.354235,-12519.247843
46.532123,612.562586,995.414202,-7178.467800
46.534687,344.566454,-1129.412267,-11045.269122
46.537251,19.142581,3732.803256,-9915.856854
46.539816,38.285162,-516.849682,-10164.710405
46.542380,-4134.797453,-478.564520,-9131.011042
46.544944,1263.410333,-38.285162,-10164.710405
46.547509,-842.273555,918.843878,-10030.712339
46.550073,1569.691626,-535.992262,-10490.134278
46.552637,-1071.984525,1512.263883,-9399.007173
46.555202,-172.283227,-1014.556782,-11083.554283
46.557766,0.000000,1493.121302,-8843.872330
46.560330,-516.849682,-459.421939,-10681.560086
46.562895,-535.992262,-191.425808,-9820.143950
46.565459,-3120.240670,-2316.252277,-9934.999435
46.568023,669.990328,-880.558717,-9839.286531
46.570588,-229.710970,114.855485,-10164.710405
46.573152,2660.818731,-880.558717,-9992.427178
46.575716,-3330.809059,-325.423874,-10279.565890
46.578281,2450.250342,2852.244539,-10681.560086
46.580845,-823.130974,1454.836141,-10413.563955
46.583409,7925.028451,4421.936165,-9073.583299
46.585974,-5359.922624,-2699.103893,-11026.126541
46.588538,478.564520,-153.140646,-9762.716208
46.591102,-516.849682,4268.795518,-8652.446522
46.593667,267.996131,-114.855485,-10968.698798
46.596231,4249.652938,784.845813,-9054.440718
46.598795,-2277.967115,593.420005,-10279.565890
46.601360,976.271621,1397.408398,-9877.571693
46.603924,1301.695494,746.560651,-9513.862658
46.606488,1244.267752,95.712904,-10279.565890
46.609053,38.285162,1167.697429,-9820.143950
46.611617,689.132909,1129.412267,-9418.149754
46.614181,1780.260014,3158.525832,-9150.153622
46.616745,287.138712,1818.545176,-10451.849117
46.619310,1761.117434,1933.400661,-9456.434915
46.621874,-1186.840010,229.710970,-9896.714274
46.624439,3330.809059,2297.109696,-10279.565890
46.627005,-4843.072942,-1856.830338,-10394.421374
46.629570,-842.273555,-2545.963246,-9743.573627
46.632136,1856.830338,57.427742,-9992.427178
46.634701,-555.134843,-191.425808,-11676.974288
46.637266,1933.400661,1473.978722,-8671.589102
46.639832,-4326.223261,-2067.398726,-10375.278794
46.642397,191.425808,57.427742,-9667.003304
46.644962,842.273555,497.707101,-9628.718142
46.647528,-1014.556782,38.285162,-9839.286531
46.650093,957.129040,57.427742,-9839.286531
46.652658,-1588.834206,-401.994197,-9896.714274
46.655224,784.845813,957.129040,-9801.001370
46.657789,-1205.982590,-1512.263883,-10968.698798
46.660354,-76.570323,306.281293,-9341.579430
46.662920,-2277.967115,-1378.265818,-9973.284597
46.665485,-1741.974853,-1473.978722,-10375.278794
46.668051,440.279358,38.285162,-9341.579430
46.670616,2277.967115,-133.998066,-9456.434915
46.673181,-2833.101958,19.142581,-11083.554283
46.675747,-516.849682,1320.838075,-10681.560086
46.678312,-1741.974853,1607.976787,-11064.411702
46.680877,9571.290400,4804.787781,-8824.729749
46.683443,-3292.523898,-1550.549045,-10872.985894
46.686008,689.132909,-1895.115499,-10375.278794
46.688573,478.564520,5953.342629,-8154.739421
46.691139,1646.261949,-555.134843,-12155.538808
46.693704,4517.649069,2220.539373,-8748.159426
46.696269,-1799.402595,248.853550,-10662.417506
46.698835,1703.689691,2143.969050,-9934.999435
46.701400,937.986459,746.560651,-9801.001370
46.703965,669.990328,1588.834206,-10088.140082
46.706531,1071.984525,976.271621,-10260.423309
46.709096,1320.838075,2105.683888,-9418.149754
46.711662,1952.543242,3139.383251,-9992.427178
46.714227,-440.279358,2488.535504,-9915.856854
46.716792,2699.103893,2545.963246,-9284.151688
46.719358,-4862.215523,-95.712904,-10432.706536
46.721923,4326.223261,4287.938099,-8786.444587
46.724488,-7886.743290,-1320.838075,-9667.003304
46.727035,210.568389,-2852.244539,-9609.575562
46.729581,38.285162,784.845813,-9150.153622
46.732127,574.277424,-1148.554848,-12232.109131
46.734673,1167.697429,3426.521963,-7618.747158
46.737220,-4766.502619,-1780.260014,-9686.145885
46.739766,363.709035,229.710970,-9571.290400
46.742312,401.994197,1205.982590,-10145.567824
46.744858,-784.845813,191.425808,-10336.993632
46.747404,842.273555,765.703232,-9207.581365
46.749951,-1627.119368,-918.843878,-10738.987829
46.752497,287.138712,1225.125171,-8843.872330
46.755043,-344.566454,-287.138712,-10317.851051
46.757589,-765.703232,-114.855485,-9858.429112
46.760136,-2258.824534,-1990.828403,-10164.710405
46.762682,-957.129040,-1473.978722,-9743.573627
46.765228,1339.980656,535.992262,-9686.145885
46.767774,612.562586,-784.845813,-9954.142016
46.770321,-2794.816797,133.998066,-10336.993632
46.772867,-95.712904,2890.529701,-10068.997501
46.775413,-1033.699363,306.281293,-10202.995566
46.777959,9820.143950,5302.494882,-7867.600709
46.780506,-5532.205851,-3369.094221,-11887.542677
46.783052,1033.699363,593.420005,-9054.440718
46.785598,363.709035,4115.654872,-8843.872330
46.788144,-727.418070,516.849682,-11255.837510
46.790691,5589.633594,1071.984525,-9131.011042
46.793237,-3120.240670,1186.840010,-9839.286531
46.795783,2488.535504,1512.263883,-10872.985894
46.798329,-459.421939,-19.142581,-10298.708470
46.800875,1875.972918,2086.541307,-9284.151688
46.803422,459.421939,1244.267752,-10336.993632
46.805968,1550.549045,1569.691626,-9801.001370
46.808514,2756.531635,3407.379382,-9628.718142
46.811060,-248.853550,2009.970984,-10241.280728
46.813607,4632.504554,2258.824534,-9494.720077
46.816153,-5302.494882,114.855485,-10872.985894
46.818699,5627.918755,5398.207786,-8499.305875
46.821245,-8575.876198,-4096.512291,-12576.675586
46.823792,784.845813,-842.273555,-8154.739421
46.826338,823.130974,-38.285162,-10700.702667
46.828888,-918.843878,2373.680019,-10470.991698
46.831438,210.568389,382.851616,-9188.438784
46.833988,-3924.229064,-2163.111630,-9628.718142
46.836538,-38.285162,-19.142581,-9647.860723
46.839088,-1052.841944,861.416136,-9954.142016
46.841638,669.990328,-631.705166,-10088.140082
46.844188,-421.136778,1091.127106,-9533.005238
46.846738,-459.421939,-1588.834206,-11006.983960
46.849288,535.992262,2182.254211,-8480.163294
46.851838,-1301.695494,-2182.254211,-10949.556218
46.854388,-1607.976787,-229.710970,-9552.147819
46.856938,-2335.394858,-2373.680019,-9915.856854
46.859487,765.703232,267.996131,-8958.727814
46.862037,1225.125171,76.570323,-9303.294269
46.864587,-1282.552914,-2163.111630,-11217.552349
46.867137,-5570.491013,-1512.263883,-9437.292334
46.869687,3924.229064,5034.498750,-6259.623922
46.872237,-1684.547110,1397.408398,-11944.970419
46.874787,7350.751027,1761.117434,-9016.155557
46.877337,-3924.229064,-1665.404530,-10796.415571
46.879887,-1091.127106,4977.071008,-8614.161360
46.882437,1320.838075,-612.562586,-12117.253646
46.884987,2622.533570,3905.086483,-7982.456194
46.887537,593.420005,-267.996131,-10911.271056
46.890087,-1990.828403,555.134843,-10604.989763
46.892637,2201.396792,1301.695494,-8480.163294
46.895187,-287.138712,746.560651,-9877.571693
46.897737,421.136778,1473.978722,-10643.274925
46.900287,325.423874,2067.398726,-9762.716208
46.902837,2277.967115,2909.672282,-9628.718142
46.905387,229.710970,2335.394858,-9590.432981
46.907937,3483.949706,861.416136,-10279.565890
46.910487,-2450.250342,1110.269686,-9341.579430
46.913037,4977.071008,2373.680019,-10375.278794
46.915587,-3771.088418,478.564520,-9188.438784
46.918137,1359.123237,-1933.400661,-9073.583299
46.920687,-363.709035,976.271621,-8977.870395
46.923237,38.285162,-1071.984525,-11523.833642
46.925787,1454.836141,3656.232933,-7657.032320
46.928337,-5206.781978,-3732.803256,-11351.550414
46.930887,-191.425808,708.275490,-8575.876198
46.933437,1359.123237,-248.853550,-10164.710405
46.935987,-2163.111630,229.710970,-9743.573627
46.938537,114.855485,555.134843,-9628.718142
46.941087,-1339.980656,-861.416136,-10451.849117
46.943637,708.275490,1741.974853,-8939.585234
46.946187,-1091.127106,-1473.978722,-10777.272990
46.948736,-957.129040,114.855485,-9437.292334
46.951290,-1091.127106,-1627.119368,-10643.274925
46.953843,-401.994197,-803.988394,-10241.280728
46.956396,2679.961312,1091.127106,-9781.858789
46.958950,-1205.982590,-1895.115499,-11772.687192
46.961503,-3924.229064,-3101.098090,-9513.862658
46.964056,4575.076811,5704.489078,-6374.479406
46.966610,-1646.261949,746.560651,-12997.812363
46.969163,10145.567824,3426.521963,-8709.874264
46.971716,-4900.500685,-2009.970984,-11313.265253
46.974270,229.710970,2067.398726,-9131.011042
46.976823,1378.265818,2622.533570,-9628.718142
46.979376,842.273555,3713.660675,-8154.739421
46.981930,2105.683888,-248.853550,-10930.413637
46.984483,-650.847747,1588.834206,-10375.278794
46.987036,2354.537438,2182.254211,-9475.577496
46.989590,-1569.691626,459.421939,-10413.563955
46.992143,2029.113565,1493.121302,-9724.431046
46.994696,727.418070,1665.404530,-9571.290400
46.997250,1033.699363,2009.970984,-9781.858789
46.999803,1550.549045,2545.963246,-9667.003304
47.002356,2756.531635,1339.980656,-10298.708470
47.004909,-1741.974853,937.986459,-10107.282662
47.007463,3369.094221,3158.525832,-9399.007173
47.010016,-4115.654872,-421.136778,-9973.284597
47.012569,-631.705166,-3732.803256,-11217.552349
47.015123,1665.404530,861.416136,-8422.735552
47.017676,401.994197,-1110.269686,-11676.974288
47.020229,-689.132909,1588.834206,-8173.882002
47.022783,-3120.240670,-2392.822600,-9705.288466
47.025336,-382.851616,440.279358,-9839.286531
47.027889,1569.691626,-248.853550,-10662.417506
47.030443,-2029.113565,344.566454,-9475.577496
47.032999,1301.695494,95.712904,-9437.292334
47.035554,-1244.267752,-401.994197,-10451.849117
47.038110,1550.549045,899.701298,-9781.858789
47.040666,-1914.258080,-1052.841944,-10336.993632
47.043222,-574.277424,19.142581,-9877.571693
47.045778,-3713.660675,-2239.681954,-10700.702667
47.048334,-1033.699363,229.710970,-9054.440718
47.050890,2852.244539,0.000000,-9513.862658
47.053446,-3292.523898,-880.558717,-11370.692995
47.056002,-3005.385186,-516.849682,-9954.142016
47.058557,2373.680019,4498.506488,-6814.758765
47.061113,957.129040,2029.113565,-11351.550414
47.063669,4364.508422,1473.978722,-9456.434915
47.066225,-2316.252277,-2220.539373,-10375.278794
47.068781,-689.132909,4096.512291,-8633.303941
47.071337,727.418070,-746.560651,-12289.536874
47.073893,3349.951640,3196.810994,-8001.598774
47.076449,-114.855485,95.712904,-10624.132344
47.079005,-1205.982590,1378.265818,-10700.702667
47.081561,3426.521963,1339.980656,-9111.868461
47.084116,-401.994197,1493.121302,-9762.716208
47.086672,2450.250342,995.414202,-10968.698798
47.089228,1627.119368,1990.828403,-9820.143950
47.091784,2431.107762,2699.103893,-9954.142016
47.094340,1033.699363,2373.680019,-9590.432981
47.096896,3407.379382,823.130974,-10088.140082
47.099452,-5053.641331,555.134843,-9839.286531
47.102008,4517.649069,4517.649069,-8154.739421
47.104564,-10872.985894,-4173.082614,-12021.540742
47.107119,2756.531635,-497.707101,-7752.745224
47.109675,-918.843878,1225.125171,-10451.849117
47.112231,-306.281293,3885.943902,-9992.427178
47.114787,-918.843878,-2163.111630,-11006.983960
47.117343,-3464.807125,-497.707101,-8767.302006
47.119899,1646.261949,-248.853550,-10011.569758
47.122455,-823.130974,976.271621,-10068.997501
47.125011,899.701298,-76.570323,-10356.136213
47.127567,325.423874,2009.970984,-9456.434915
47.130123,-1435.693560,-1741.974853,-10738.987829
47.132678,-363.709035,1627.119368,-8403.592971
47.135237,-1952.543242,-1914.258080,-10049.854920
47.137795,-631.705166,-689.132909,-9667.003304
47.140353,-2105.683888,-2545.963246,-11255.837510
47.142911,1684.547110,1225.125171,-8729.016845
47.145470,3369.094221,-1703.689691,-10566.704602
47.148028,-3924.229064,-95.712904,-10241.280728
47.150586,4421.936165,4326.223261,-7618.747158
47.153145,-3866.801322,267.996131,-12768.101394
47.155703,12442.677520,6049.055533,-8843.872330
47.158261,-3943.371645,-1741.974853,-11466.405899
47.160819,727.418070,-708.275490,-10030.712339
47.163378,1703.689691,4709.074877,-8901.300072
47.165936,-1607.976787,-114.855485,-11696.116869
47.168494,5225.924558,1531.406464,-8365.307810
47.171052,-995.414202,861.416136,-10413.563955
47.173611,1799.402595,2297.109696,-10222.138147
47.176169,-1091.127106,1071.984525,-9858.429112
47.178727,1799.402595,1741.974853,-9801.001370
47.181285,689.132909,1799.402595,-9934.999435
47.183844,-95.712904,1225.125171,-9552.147819
47.186402,3349.951640,3522.234867,-8729.016845
47.188960,1818.545176,1033.699363,-10758.130410
47.191519,-3081.955509,957.129040,-10241.280728
47.194077,4134.797453,3809.373579,-8958.727814
47.196635,-9169.296203,-2833.101958,-10164.710405
47.199193,3579.662610,-3062.812928,-9111.868461
47.201752,-382.851616,1588.834206,-10011.569758
47.204310,2029.113565,-1129.412267,-12538.390424
47.206868,976.271621,3751.945837,-7580.461997
47.209426,-4211.367776,-4134.797453,-11466.405899
47.211985,1971.685822,957.129040,-9150.153622
47.214543,-191.425808,344.566454,-10911.271056
47.217101,-957.129040,-459.421939,-10068.997501
47.219659,1225.125171,842.273555,-9073.583299
47.222218,-1071.984525,-191.425808,-10432.706536
47.224776,19.142581,478.564520,-9858.429112
47.227334,-1129.412267,-842.273555,-9647.860723
47.229893,-631.705166,-19.142581,-9399.007173
47.232451,-2411.965181,-2239.681954,-10643.274925
47.235009,325.423874,-440.279358,-9839.286531
47.237569,3388.236802,306.281293,-9207.581365
47.240129,-4249.652938,38.285162,-11140.982026
47.242690,2392.822600,3445.664544,-10145.567824
47.245250,-2392.822600,114.855485,-9839.286531
47.247810,7350.751027,5532.205851,-9207.581365
47.250371,-248.853550,-823.130974,-10872.985894
47.252931,-325.423874,-631.705166,-9207.581365
47.255491,1339.980656,5015.356170,-8173.882002
47.258052,-1722.832272,-363.709035,-12385.249778
47.260612,5340.780043,1493.121302,-8633.303941
47.263173,-2354.537438,1071.984525,-9877.571693
47.265733,880.558717,555.134843,-11332.407834
47.268293,1205.982590,823.130974,-8863.014910
47.270854,-133.998066,1722.832272,-9647.860723
47.273414,1110.269686,2105.683888,-10432.706536
47.275974,574.277424,880.558717,-10107.282662
47.278535,4000.799387,3043.670347,-8441.878133
47.281095,1703.689691,2067.398726,-10662.417506
47.283656,325.423874,1359.123237,-10317.851051
47.286216,2852.244539,3101.098090,-10011.569758
47.288776,-4498.506488,-650.847747,-8977.870395
47.291337,1588.834206,-3522.234867,-10930.413637
47.293897,-650.847747,248.853550,-9915.856854
47.296457,899.701298,-995.414202,-11696.116869
47.299018,1646.261949,3503.092286,-7810.172966
47.301578,-4211.367776,-3694.518094,-11734.402030
47.304139,1607.976787,1435.693560,-8997.012976
47.306699,765.703232,191.425808,-11121.839445
47.309259,-2163.111630,-229.710970,-10202.995566
47.311820,2392.822600,-306.281293,-8901.300072
47.314380,-612.562586,-76.570323,-10509.276859
47.316940,497.707101,-172.283227,-10356.136213
47.319501,-1703.689691,-746.560651,-10183.852986
47.322061,-1378.265818,-344.566454,-8901.300072
47.324622,-2871.387120,-2354.537438,-10738.987829
47.327182,-803.988394,-1186.840010,-9552.147819
47.329742,3292.523898,229.710970,-8518.448456
47.332303,-3828.516160,-765.703232,-11121.839445
47.334863,1895.115499,3522.234867,-8461.020714
47.337423,-1646.261949,746.560651,-11198.409768
47.339966,8212.167163,6144.768437,-9035.298138
47.342509,-1454.836141,-2067.398726,-11351.550414
47.345052,-497.707101,-957.129040,-9245.866526
47.347595,1531.406464,5264.209720,-8327.022648
47.350137,-1320.838075,57.427742,-12308.679454
47.352680,4862.215523,1129.412267,-8748.159426
47.355223,-1378.265818,153.140646,-10183.852986
47.357766,1818.545176,2143.969050,-9973.284597
47.360308,-1167.697429,899.701298,-10011.569758
47.362851,1397.408398,1799.402595,-9456.434915
47.365394,1473.978722,1914.258080,-10413.563955
47.367937,401.994197,1741.974853,-10068.997501
47.370480,3924.229064,3043.670347,-9073.583299
47.373022,1646.261949,1646.261949,-10260.423309
47.375565,-4249.652938,95.712904,-10758.130410
47.378108,5130.211654,4996.213589,-8250.452325
47.380651,-12040.683323,-4077.369710,-11983.255581
47.383193,3024.527766,-1071.984525,-7561.319416
47.385736,-1493.121302,669.990328,-10145.567824
47.388279,689.132909,325.423874,-11466.405899
47.390822,-765.703232,2124.826469,-8269.594906
47.393364,-5532.205851,-2986.242605,-10298.708470
47.395907,1493.121302,1186.840010,-9265.009107
47.398450,-842.273555,842.273555,-10279.565890
47.400993,535.992262,-1014.556782,-10585.847182
47.403536,-535.992262,1397.408398,-8729.016845
47.406078,-57.427742,-1033.699363,-10394.421374
47.408621,593.420005,765.703232,-9590.432981
47.411164,-1799.402595,-1244.267752,-10451.849117
47.413707,-1780.260014,-765.703232,-9418.149754
47.416249,-2813.959378,-1665.404530,-9896.714274
47.418792,4326.223261,1550.549045,-8920.442653
47.421335,-1301.695494,-2392.822600,-11581.261384
47.423878,-2986.242605,-1416.550979,-9801.001370
47.426420,4000.799387,4441.078746,-7503.891674
47.428963,-2967.100024,191.425808,-11964.113000
47.431506,10432.706536,3943.371645,-8709.874264
47.434049,-6144.768437,-765.703232,-11026.126541
47.436592,593.420005,2545.963246,-9226.723946
47.439134,1225.125171,1550.549045,-10260.423309
47.441662,0.000000,2354.537438,-9743.573627
47.444190,2143.969050,593.420005,-9762.716208
47.446719,-784.845813,555.134843,-10528.419440
47.449247,1627.119368,2660.818731,-9743.573627
47.451775,-1378.265818,631.705166,-9973.284597
47.454303,1052.841944,765.703232,-9762.716208
47.456831,957.129040,2699.103893,-9667.003304
47.459359,1454.836141,2201.396792,-9858.429112
47.461887,1205.982590,2220.539373,-9571.290400
47.464415,306.281293,1014.556782,-10604.989763
47.466943,2469.392923,3407.379382,-9973.284597
47.469471,-4326.223261,-976.271621,-9188.438784
47.471999,1914.258080,-2986.242605,-10777.272990
47.474528,689.132909,-172.283227,-10260.423309
47.477056,3024.527766,-746.560651,-11179.267187
47.479584,-1167.697429,4613.361973,-7695.317482
47.482112,-3024.527766,-4594.219392,-11657.831707
47.484640,2297.109696,1454.836141,-8805.587168
47.487168,-650.847747,306.281293,-10719.845248
47.489696,-1588.834206,-459.421939,-10394.421374
47.492224,1665.404530,306.281293,-8709.874264
47.494752,-1205.982590,344.566454,-10107.282662
47.497280,38.285162,191.425808,-10375.278794
47.499808,-1033.699363,-918.843878,-10049.854920
47.502336,-1875.972918,-516.849682,-9245.866526
47.504865,-2163.111630,-2105.683888,-9915.856854
47.507393,2201.396792,1014.556782,-9647.860723
47.509921,765.703232,-1933.400661,-10547.562021
47.512449,-3024.527766,-1263.410333,-9839.286531
47.514977,2488.535504,4728.217458,-8882.157491
47.517505,-1473.978722,210.568389,-11389.835576
47.520033,8480.163294,4555.934230,-8461.020714
47.522561,-2277.967115,-1359.123237,-11274.980091
47.525089,918.843878,497.707101,-9858.429112
47.527617,631.705166,3024.527766,-9188.438784
47.530145,-287.138712,1091.127106,-10490.134278
47.532674,3120.240670,1091.127106,-9437.292334
47.535202,-1397.408398,114.855485,-10432.706536
47.537730,1205.982590,2603.390989,-9724.431046
47.540258,248.853550,382.851616,-10011.569758
47.542792,172.283227,1263.410333,-9915.856854
47.545327,1512.263883,2871.387120,-9667.003304
47.547861,1780.260014,2239.681954,-10088.140082
47.550396,1359.123237,2067.398726,-9781.858789
47.552931,2239.681954,2354.537438,-9801.001370
47.555465,-650.847747,823.130974,-11370.692995
47.558000,3598.805190,3943.371645,-7618.747158
47.560534,-4326.223261,-5245.067139,-13304.093656
47.563069,2239.681954,-19.142581,-8652.446522
47.565603,3560.520029,-1397.408398,-11696.116869
47.568138,-114.855485,4268.795518,-7905.885870
47.570673,-3024.527766,-4881.358104,-12251.251712
47.573207,-516.849682,1933.400661,-8001.598774
47.575742,2297.109696,-191.425808,-10930.413637
47.578276,-1799.402595,957.129040,-10145.567824
47.580811,1895.115499,-612.562586,-9992.427178
47.583345,-440.279358,669.990328,-9609.575562
47.585880,133.998066,95.712904,-10451.849117
47.588414,-727.418070,-1684.547110,-10011.569758
47.590949,-1875.972918,-229.710970,-8977.870395
47.593484,-2182.254211,-2335.394858,-10470.991698
47.596018,2622.533570,191.425808,-9762.716208
47.598553,421.136778,-1684.547110,-10279.565890
47.601087,-1014.556782,172.283227,-9456.434915
47.603622,1014.556782,2852.244539,-10317.851051
47.606156,-4153.940034,784.845813,-11964.113000
47.608691,12997.812363,3981.656806,-8556.733618
47.611225,-5359.922624,-1359.123237,-11676.974288
47.613760,689.132909,-478.564520,-9743.573627
47.616295,1550.549045,4019.941968,-8001.598774
47.618829,-1378.265818,-248.853550,-11906.685258
47.621364,4536.791650,1473.978722,-9092.725880
47.623898,-2086.541307,172.283227,-9762.716208
47.626433,2411.965181,2354.537438,-9781.858789
47.628967,-1607.976787,-306.281293,-10336.993632
47.631502,1148.554848,1722.832272,-9284.151688
47.634037,1607.976787,2794.816797,-10030.712339
47.636571,1378.265818,1703.689691,-10356.136213
47.639106,1646.261949,2699.103893,-9111.868461
47.641640,784.845813,1473.978722,-9801.001370
47.644181,-803.988394,1205.982590,-10470.991698
47.646721,-3598.805190,-267.996131,-8614.161360
47.649261,287.138712,-3254.238736,-11083.554283
47.651802,1569.691626,363.709035,-9322.436850
47.654342,2488.535504,-1818.545176,-11064.411702
47.656882,267.996131,4115.654872,-8212.167163
47.659423,-2794.816797,-3637.090352,-12155.538808
47.661963,-650.847747,2143.969050,-8556.733618
47.664503,2105.683888,-363.709035,-10987.841379
47.667044,-1856.830338,-478.564520,-10202.995566
47.669584,1741.974853,363.709035,-8805.587168
47.672124,-2048.256146,-382.851616,-10432.706536
47.674665,918.843878,325.423874,-10068.997501
47.677205,-1416.550979,-861.416136,-10547.562021
47.679745,-3292.523898,-1722.832272,-9839.286531
47.682286,-1435.693560,-1761.117434,-9571.290400
47.684826,1378.265818,440.279358,-9915.856854
47.687366,-1550.549045,-1952.543242,-11849.257515
47.689907,-3120.240670,-1493.121302,-9743.573627
47.692447,3158.525832,5168.496816,-6680.760699
47.694987,-727.418070,344.566454,-12270.394293
47.697528,7676.174901,2852.244539,-8403.592971
47.700068,-2699.103893,-689.132909,-11351.550414
47.702608,-325.423874,842.273555,-9934.999435
47.705149,995.414202,1780.260014,-8824.729749
47.707689,2354.537438,2488.535504,-8480.163294
47.710229,306.281293,574.277424,-9896.714274
47.712770,-38.285162,478.564520,-10892.128475
47.715310,1550.549045,1875.972918,-9073.583299
47.717850,-1071.984525,-191.425808,-10279.565890
47.720391,1933.400661,2488.535504,-9360.722011
47.722931,1473.978722,2507.678085,-9839.286531
47.725471,2469.392923,2431.107762,-10279.565890
47.728012,3139.383251,2584.248408,-9705.288466
47.730552,-2431.107762,344.566454,-10968.698798
47.733092,4766.502619,4709.074877,-8939.585234
47.735633,-10241.280728,-5015.356170,-11600.403965
47.738173,3215.953574,-440.279358,-7963.313613
47.740713,-306.281293,1167.697429,-11121.839445
47.743254,1512.263883,325.423874,-11485.548480
47.745780,-248.853550,2067.398726,-8135.596840
47.748307,-5474.778109,-1493.121302,-8997.012976
47.750833,2718.246474,1091.127106,-9590.432981
47.753360,-1378.265818,440.279358,-10509.276859
47.755886,1244.267752,-248.853550,-10222.138147
47.758413,-1531.406464,1646.261949,-8805.587168
47.760940,-459.421939,-1569.691626,-10528.419440
47.763466,727.418070,1148.554848,-8633.303941
47.765993,-1780.260014,-2029.113565,-10719.845248
47.768519,-1780.260014,-1091.127106,-10394.421374
47.771046,669.990328,-1244.267752,-9954.142016
47.773572,4000.799387,114.855485,-9303.294269
47.776099,-2545.963246,-784.845813,-11006.983960
47.778626,2545.963246,1856.830338,-10585.847182
47.781152,-2431.107762,95.712904,-9839.286531
47.783679,6967.899411,4785.645200,-8767.302006
47.786205,-497.707101,-210.568389,-10432.706536
47.788732,574.277424,-1148.554848,-9571.290400
47.791258,1416.550979,4345.365842,-8595.018779
47.793785,-2086.541307,248.853550,-11906.685258
47.796311,5455.635528,861.416136,-9131.011042
47.798838,-2584.248408,1493.121302,-9284.151688
47.801365,1741.974853,689.132909,-11332.407834
47.803891,-38.285162,1665.404530,-9284.151688
47.806418,210.568389,899.701298,-9858.429112
47.808944,1550.549045,3139.383251,-9628.718142
47.811471,1416.550979,2182.254211,-10068.997501
47.813997,2833.101958,2660.818731,-9513.862658
47.816524,-172.283227,1435.693560,-9973.284597
