#time,accel_x,accel_y,accel_z
77.201729,1480.411884,5181.441594,-78907.836294
77.204292,1924.535449,4737.318029,-78601.398095
77.206855,1628.453072,4885.359217,-78448.178995
77.209418,888.247130,4589.276840,-78601.398095
77.211981,888.247130,5033.400406,-78141.740796
77.214544,1480.411884,4737.318029,-78294.959896
77.217107,1480.411884,4441.235652,-79367.493593
77.219670,1184.329507,4441.235652,-78601.398095
77.222233,888.247130,5033.400406,-79061.055394
77.224796,888.247130,4737.318029,-78294.959896
77.227359,1480.411884,4737.318029,-78754.617194
77.229921,1480.411884,5033.400406,-79061.055394
77.232484,1480.411884,4589.276840,-78601.398095
77.235047,1332.370696,4589.276840,-78754.617194
77.237610,1924.535449,4737.318029,-78907.836294
77.240173,1628.453072,4589.276840,-78448.178995
77.242736,1332.370696,4441.235652,-78601.398095
77.245299,1480.411884,4441.235652,-78907.836294
77.247862,1036.288319,4441.235652,-78294.959896
77.250425,2220.617826,5181.441594,-78601.398095
77.252988,1776.494261,4293.194464,-78907.836294
77.255551,2072.576638,5329.482782,-78907.836294
77.258114,2220.617826,4293.194464,-78907.836294
77.260676,1184.329507,4737.318029,-78754.617194
77.263239,7550.100608,7846.182985,-79061.055394
77.265802,12435.459826,10214.842000,-77222.426198
77.268365,7550.100608,11103.089130,-77375.645298
77.270928,6365.771101,10807.006753,-77988.521696
77.273485,-888.247130,5477.523971,-80440.027290
77.276042,7254.018232,9326.594869,-76915.987999
77.278599,9178.553681,9178.553681,-75843.454302
77.281156,14063.912898,14211.954086,-76303.111601
77.283713,-3256.906145,1480.411884,-80899.684589
77.286269,3552.988522,4441.235652,-77222.426198
77.288826,14508.036463,25759.166782,-75537.016103
77.291383,21465.972318,2072.576638,-80440.027290
77.293940,-3108.864956,-7402.059420,-85343.038477
77.296497,2368.659014,5921.647536,-77528.864398
77.299054,-18801.230927,-296.082377,-81512.560987
77.301611,15988.448347,16284.530724,-73085.510509
77.304168,1924.535449,-1628.453072,-80286.808190
77.306725,6809.894666,-4441.235652,-77375.645298
77.309281,-17468.860231,8882.471304,-78601.398095
77.311838,3997.112087,296.082377,-80133.589091
77.314395,5477.523971,4589.276840,-77988.521696
77.316952,3849.070898,-6809.894666,-81512.560987
77.319509,-15544.324782,888.247130,-80746.465489
77.322066,-13915.871710,7402.059420,-77835.302597
77.324623,3701.029710,1924.535449,-77835.302597
77.327180,-1184.329507,-1036.288319,-80133.589091
77.329737,2516.700203,7550.100608,-76303.111601
77.332294,2368.659014,5625.565159,-76762.768900
77.334850,2812.782580,4441.235652,-78141.740796
77.337407,1184.329507,-740.205942,-78141.740796
77.339964,-4589.276840,1036.288319,-76456.330700
77.342521,-1924.535449,1184.329507,-75230.577904
77.345078,-3997.112087,-4885.359217,-80440.027290
77.347635,1332.370696,4145.153275,-76915.987999
77.350192,8586.388927,5181.441594,-78754.617194
77.352749,-2960.823768,888.247130,-78754.617194
77.355306,-9474.636058,-444.123565,-76303.111601
77.357862,-4145.153275,-4145.153275,-78141.740796
77.360419,12879.583391,10066.800811,-80593.246390
77.362976,-10510.924376,-1480.411884,-83964.066581
77.365533,296.082377,4145.153275,-73545.167808
77.368090,-11991.336260,-1776.494261,-81972.218286
77.370647,6217.729913,444.123565,-75230.577904
77.373204,1036.288319,6217.729913,-81206.122788
77.375622,-13323.706956,-4589.276840,-79673.931792
77.378040,10955.047942,-6809.894666,-86415.572174
77.380458,-23390.507767,-16432.571912,-95915.156350
77.382876,64249.875766,51222.251186,-60674.763442
77.385293,-25759.166782,-4145.153275,-83810.847481
77.387711,24722.878463,3256.906145,-80286.808190
77.390129,13471.748144,-2812.782580,-80746.465489
77.392547,-8734.430116,27683.702231,-81665.780087
77.394965,5625.565159,13619.789333,-79827.150892
77.397383,10510.924376,-8586.388927,-84117.285680
77.399801,-11991.336260,3108.864956,-86415.572174
77.402219,27831.743419,20281.642811,-72779.072310
77.404637,-16580.613101,14359.995275,-83197.971083
77.407055,23094.425390,7846.182985,-80133.589091
77.409473,-6809.894666,9326.594869,-76762.768900
77.411891,3108.864956,3849.070898,-74158.044206
77.414309,-1332.370696,14063.912898,-78754.617194
77.416727,7994.224174,7994.224174,-81512.560987
77.419145,16284.530724,8734.430116,-74004.825107
77.421562,-3552.988522,1036.288319,-80440.027290
77.423980,2516.700203,12287.418637,-76149.892501
77.426398,-3404.947333,3404.947333,-82278.656485
77.428816,4589.276840,4293.194464,-80286.808190
77.431234,-2960.823768,5329.482782,-81359.341888
77.433652,11843.295072,13175.665768,-74617.701505
77.436070,2960.823768,11103.089130,-76609.549800
77.438488,9622.677246,9918.759623,-75537.016103
77.440906,2960.823768,8290.306550,-77682.083497
77.443324,-7402.059420,-1924.535449,-86722.010374
77.445742,5921.647536,8438.347739,-80746.465489
77.448160,4737.318029,15544.324782,-78907.836294
77.450578,12287.418637,13471.748144,-79367.493593
77.452996,-6957.935855,-6217.729913,-85955.914876
77.455414,-888.247130,9178.553681,-76609.549800
77.457831,19837.519246,17764.942608,-72472.634111
77.460249,-5181.441594,-6069.688724,-87334.886772
77.462667,30940.608376,33013.185013,-74004.825107
77.465085,-17024.736666,-13323.706956,-85955.914876
77.467503,18505.148550,11547.212695,-72166.195912
77.469921,-15988.448347,14952.160028,-84576.942979
77.472382,42487.821071,20281.642811,-68029.280222
77.474844,-67210.699534,-25315.043216,-83197.971083
77.477305,50185.962868,-7550.100608,-70634.004916
77.479766,-75056.882519,-6365.771101,-98366.661943
77.482227,51962.457128,45152.562462,-68029.280222
77.484689,-45004.521274,-13027.624579,-87794.544071
77.487150,2664.741391,-22946.384202,-76609.549800
77.489611,-25315.043216,18357.107362,-85802.695776
77.492072,1184.329507,-2664.741391,-82431.875585
77.494533,-5329.482782,13767.830521,-73698.386908
77.496995,-4441.235652,-20577.725188,-89633.173266
77.499456,6069.688724,2368.659014,-79827.150892
77.501917,-26647.413912,5477.523971,-87641.324971
77.504378,16580.613101,8142.265362,-75996.673402
77.506840,-9030.512492,4145.153275,-76456.330700
77.509301,13175.665768,-13767.830521,-82278.656485
77.511762,-17912.983796,7402.059420,-79367.493593
77.514223,-1480.411884,2812.782580,-78907.836294
77.516685,2220.617826,4589.276840,-78141.740796
77.519146,-6957.935855,-4589.276840,-80899.684589
77.521607,3404.947333,7846.182985,-75077.358804
77.524068,-2368.659014,2516.700203,-81972.218286
77.526530,-444.123565,4589.276840,-79520.712692
77.528991,-8290.306550,-3997.112087,-78754.617194
77.531452,-7846.182985,-4145.153275,-78754.617194
77.533913,3849.070898,1628.453072,-79673.931792
77.536374,444.123565,4441.235652,-79980.369991
77.538836,-1184.329507,3404.947333,-78907.836294
77.541297,-13767.830521,-4737.318029,-80133.589091
77.543758,-6365.771101,1184.329507,-79367.493593
77.546219,17764.942608,5625.565159,-75383.797003
77.548681,-9770.718434,-444.123565,-79673.931792
77.551142,-4441.235652,444.123565,-79367.493593
77.553603,-2368.659014,-444.123565,-75843.454302
77.556064,18949.272115,1332.370696,-73085.510509
77.558526,-16580.613101,3552.988522,-86568.791274
77.560987,6069.688724,1332.370696,-76149.892501
77.563448,-10510.924376,-14359.995275,-93157.212557
77.565909,-7846.182985,-8586.388927,-92391.117059
77.568371,27535.661042,49445.756926,-69408.252119
77.570863,61289.051998,29608.237680,-62973.049936
77.573355,-57439.981099,-15988.448347,-88560.639569
77.575847,38046.585419,-444.123565,-68488.937521
77.578339,-15692.365970,33161.226202,-80440.027290
77.580832,8586.388927,8586.388927,-79367.493593
77.583324,10658.965565,-12287.418637,-81665.780087
77.585816,-18801.230927,-1332.370696,-84423.723880
77.588308,31532.773129,28423.908173,-71553.319513
77.590800,-10066.800811,3256.906145,-81665.780087
77.593292,16136.489536,8734.430116,-70480.785816
77.595785,-5033.400406,444.123565,-79980.369991
77.598277,2960.823768,8882.471304,-77069.207099
77.600769,1776.494261,14359.995275,-78448.178995
77.603261,7550.100608,2516.700203,-80286.808190
77.605753,10807.006753,8586.388927,-76609.549800
77.608246,-1184.329507,5625.565159,-79520.712692
77.610738,4293.194464,11103.089130,-74924.139704
77.613230,1184.329507,296.082377,-81665.780087
77.615722,1036.288319,13175.665768,-77069.207099
77.618214,3256.906145,4589.276840,-79520.712692
77.620707,9474.636058,15988.448347,-75690.235202
77.623199,11103.089130,12731.542202,-79367.493593
77.625691,1628.453072,6069.688724,-79214.274493
77.628183,-4885.359217,592.164754,-80593.246390
77.630675,7846.182985,20873.807564,-77682.083497
77.633168,10362.883188,17912.983796,-78448.178995
77.635660,1332.370696,-740.205942,-80746.465489
77.638152,-6661.853478,2368.659014,-79520.712692
77.640644,6365.771101,12879.583391,-80286.808190
77.643136,1776.494261,5477.523971,-83810.847481
77.645629,12731.542202,7402.059420,-76762.768900
77.648121,888.247130,10214.842000,-77835.302597
77.650613,-6809.894666,-4737.318029,-86568.791274
77.653105,24426.796086,29460.196492,-66037.431928
77.655597,-29016.072926,-20281.642811,-96528.032748
77.658090,42635.862259,31680.814318,-63739.145434
77.660582,-26943.496289,-30052.361245,-93923.308055
77.663074,24278.754898,6661.853478,-62973.049936
77.665566,-5033.400406,-740.205942,-77988.521696
77.668058,18949.272115,23538.548956,-71553.319513
77.670573,-18061.024985,-29460.196492,-98826.319242
77.673088,22354.219448,15396.283594,-58070.038748
77.675603,-28127.825796,-592.164754,-82738.313784
77.678118,30200.402434,20577.725188,-72779.072310
77.680632,-15100.201217,-8290.306550,-83197.971083
77.683147,8734.430116,-14952.160028,-77682.083497
77.685662,-1924.535449,19393.395680,-68642.156621
77.688177,-15544.324782,-2368.659014,-82585.094684
77.690692,10362.883188,11547.212695,-71093.662214
77.693206,5921.647536,-11843.295072,-82891.532884
77.695721,-3849.070898,6957.935855,-78448.178995
77.698236,-8586.388927,4145.153275,-79214.274493
77.700751,1776.494261,3701.029710,-79673.931792
77.703266,-9326.594869,888.247130,-83351.190182
77.705780,-296.082377,3404.947333,-79980.369991
77.708295,296.082377,3108.864956,-77682.083497
77.710810,-2368.659014,-740.205942,-80133.589091
77.713325,-7105.977043,-2368.659014,-80133.589091
77.715840,0.000000,-3701.029710,-78907.836294
77.718354,-1184.329507,1924.535449,-79980.369991
77.720869,1480.411884,8438.347739,-79367.493593
77.723384,-4885.359217,1776.494261,-74311.263306
77.725899,-3701.029710,-7846.182985,-78754.617194
77.728414,9622.677246,9474.636058,-77222.426198
77.730928,-11399.171507,-4737.318029,-81972.218286
77.733443,-2516.700203,11399.171507,-75996.673402
77.735958,-3552.988522,-148.041188,-83964.066581
77.738473,-12731.542202,-9326.594869,-79367.493593
77.740988,25315.043216,20725.766376,-69408.252119
77.743502,-38786.791361,-6809.894666,-79520.712692
77.746017,31828.855506,-5329.482782,-69101.813920
77.748532,-51518.333563,-25167.002028,-95915.156350
77.750969,82162.859562,54775.239708,-56384.628653
77.753406,-49445.756926,-3256.906145,-93770.088955
77.755843,0.000000,-2664.741391,-86722.010374
77.758280,-30200.402434,-9622.677246,-87334.886772
77.760717,26499.372724,28275.866984,-80440.027290
77.763154,-13471.748144,16580.613101,-86415.572174
77.765591,15544.324782,-2072.576638,-80746.465489
77.768028,-3552.988522,-6365.771101,-83044.751983
77.770465,14804.118840,19541.436869,-75230.577904
77.772902,2072.576638,23094.425390,-73391.948708
77.775339,21614.013506,1184.329507,-80133.589091
77.777775,10362.883188,6069.688724,-76456.330700
77.780212,3404.947333,5773.606348,-74617.701505
77.782649,10510.924376,17172.777854,-71400.100414
77.785086,-1924.535449,3849.070898,-82125.437386
77.787523,16432.571912,7994.224174,-77375.645298
77.789960,296.082377,4589.276840,-79980.369991
77.792397,-1480.411884,9178.553681,-77222.426198
77.794834,1480.411884,5625.565159,-81359.341888
77.797271,3849.070898,10510.924376,-79827.150892
77.799708,5625.565159,8142.265362,-80286.808190
77.802145,7994.224174,15396.283594,-77988.521696
77.804582,6661.853478,11695.253884,-78907.836294
77.807019,1628.453072,5181.441594,-79980.369991
77.809456,4441.235652,13323.706956,-77222.426198
77.811893,12879.583391,9178.553681,-76609.549800
77.814330,1924.535449,4737.318029,-82278.656485
77.816767,444.123565,2960.823768,-81972.218286
77.819204,14063.912898,17468.860231,-74464.482406
77.821641,-2220.617826,-10066.800811,-85036.600278
77.824078,14211.954086,13915.871710,-75230.577904
77.826514,7254.018232,23242.466579,-75996.673402
77.828951,-888.247130,-7402.059420,-81818.999186
77.831388,28127.825796,27239.578666,-66956.746525
77.833825,-38638.750172,-10510.924376,-95302.279951
77.836262,28719.990550,27979.784608,-65424.555529
77.838699,-33901.432144,-35085.761651,-101277.824836
77.841136,30792.567187,11695.253884,-69408.252119
77.843573,-19689.478057,296.082377,-79214.274493
77.846010,26943.496289,33309.267390,-59602.229744
77.848486,-21910.095883,-33013.185013,-96068.375449
77.850962,21614.013506,-2072.576638,-74924.139704
77.853438,-32569.061448,9622.677246,-82585.094684
77.855913,18949.272115,17912.983796,-71400.100414
77.858389,-9770.718434,-3552.988522,-83044.751983
77.860865,10807.006753,-15248.242405,-79520.712692
77.863341,-5033.400406,11695.253884,-69408.252119
77.865817,-17764.942608,-1924.535449,-82431.875585
77.868292,5033.400406,11843.295072,-74464.482406
77.870768,-6069.688724,-10214.842000,-84117.285680
77.873244,4145.153275,-1480.411884,-79827.150892
77.875720,-7254.018232,3701.029710,-79673.931792
77.878196,740.205942,3108.864956,-79214.274493
77.880671,296.082377,2368.659014,-82125.437386
77.883147,1036.288319,3552.988522,-80286.808190
77.885623,-5625.565159,3552.988522,-78754.617194
77.888099,-5329.482782,-4441.235652,-80746.465489
77.890575,-6957.935855,-2812.782580,-79827.150892
77.893051,-2220.617826,-1332.370696,-78141.740796
77.895526,-9474.636058,2516.700203,-80133.589091
77.898002,-444.123565,-592.164754,-79520.712692
77.900478,-1776.494261,1480.411884,-79673.931792
77.902954,8290.306550,2960.823768,-77375.645298
77.905430,-16136.489536,-1184.329507,-80286.808190
77.907905,-2812.782580,3997.112087,-79367.493593
77.910381,-3256.906145,4293.194464,-81359.341888
77.912857,-15248.242405,-8882.471304,-78601.398095
77.915333,-8142.265362,10214.842000,-83810.847481
77.917809,-15100.201217,-740.205942,-79214.274493
77.920285,15988.448347,-11695.253884,-80746.465489
77.922760,-25463.084405,-22354.219448,-94536.184453
77.925236,62473.381505,54627.198520,-62513.392637
77.927712,-25018.960840,4589.276840,-90092.830565
77.930188,14508.036463,-6069.688724,-88713.858668
77.932664,-31384.731941,-6069.688724,-87488.105872
77.935139,40859.367998,25463.084405,-78448.178995
77.937615,-7105.977043,15100.201217,-83351.190182
77.940091,14656.077652,-6513.812290,-79827.150892
77.942567,-8586.388927,-6069.688724,-81972.218286
77.945043,27387.619854,25018.960840,-74158.044206
77.947548,-14952.160028,6513.812290,-85649.476676
77.950054,23390.507767,2812.782580,-74617.701505
77.952559,-2664.741391,5773.606348,-78601.398095
77.955065,10214.842000,10362.883188,-78754.617194
77.957571,-3701.029710,18949.272115,-77682.083497
77.960076,444.123565,-1480.411884,-81052.903688
77.962582,14656.077652,10807.006753,-74770.920605
77.965088,-888.247130,6365.771101,-75537.016103
77.967593,4885.359217,7550.100608,-75537.016103
77.970099,2220.617826,5625.565159,-82585.094684
77.972604,10658.965565,12287.418637,-79061.055394
77.975110,3552.988522,14508.036463,-76456.330700
77.977616,7846.182985,9622.677246,-77988.521696
77.980121,740.205942,7698.141797,-81052.903688
77.982627,12435.459826,16136.489536,-74004.825107
77.985132,7105.977043,4441.235652,-77375.645298
77.987638,-888.247130,2960.823768,-80899.684589
77.990144,3701.029710,19541.436869,-77222.426198
77.992649,21910.095883,10214.842000,-76915.987999
77.995155,-14952.160028,-11399.171507,-82278.656485
77.997660,25018.960840,28868.031738,-68948.594820
78.000166,-4145.153275,-11695.253884,-90092.830565
78.002672,20133.601622,18801.230927,-75383.797003
78.005177,-1332.370696,16136.489536,-77222.426198
78.007683,28423.908173,18801.230927,-70634.004916
78.010188,-47373.180288,-22354.219448,-83964.066581
78.012694,48113.386230,-9030.512492,-72012.976812
78.015200,-61289.051998,-9918.759623,-91931.459760
78.017705,57884.104664,26795.455100,-76609.549800
78.020211,-44708.438897,-16876.695478,-89633.173266
78.022716,-1036.288319,-19393.395680,-77222.426198
78.025222,-5625.565159,14952.160028,-77222.426198
78.027728,-7254.018232,-2220.617826,-89020.296868
78.030233,5329.482782,15692.365970,-76915.987999
78.032739,0.000000,-16284.530724,-85036.600278
78.035244,13323.706956,-1628.453072,-76609.549800
78.037750,-11991.336260,5033.400406,-79520.712692
78.040256,1480.411884,7105.977043,-73238.729609
78.042761,-6217.729913,296.082377,-78141.740796
78.045267,14211.954086,-5477.523971,-77222.426198
78.047795,-6957.935855,5033.400406,-78601.398095
78.050321,-2368.659014,1036.288319,-80593.246390
78.052847,5181.441594,7550.100608,-80440.027290
78.055373,-3701.029710,-888.247130,-83197.971083
78.057899,-740.205942,3552.988522,-77835.302597
78.060425,-11547.212695,-3849.070898,-80133.589091
78.062951,-3701.029710,-1924.535449,-82125.437386
78.065477,-4145.153275,444.123565,-78907.836294
78.068003,-5033.400406,1332.370696,-75996.673402
78.070529,-148.041188,1332.370696,-79673.931792
78.073055,6069.688724,7698.141797,-78907.836294
78.075581,-9622.677246,-148.041188,-79214.274493
78.078107,-6217.729913,-2072.576638,-74770.920605
78.080633,-3108.864956,2072.576638,-78601.398095
78.083159,-14952.160028,-2220.617826,-83657.628382
78.085684,42783.903448,10807.006753,-70634.004916
78.088210,-53294.827824,-2072.576638,-83351.190182
78.090736,47077.097911,17764.942608,-55158.875856
78.093262,-54331.116143,-16728.654289,-84423.723880
78.095788,72244.099939,39082.873738,-53167.027561
78.098314,-71059.770432,740.205942,-100664.948437
78.100840,84679.559765,27683.702231,-54699.218557
78.103366,-46040.809592,-17468.860231,-86262.353075
78.105892,66618.534780,11695.253884,-72932.291410
78.108418,-5477.523971,33309.267390,-80593.246390
78.110944,20577.725188,4293.194464,-74158.044206
78.113470,-1184.329507,-13767.830521,-78141.740796
78.115996,10214.842000,1628.453072,-83351.190182
78.118522,16580.613101,41303.491564,-72319.415011
78.121048,-7254.018232,-3108.864956,-88254.201370
78.123574,14063.912898,6365.771101,-74158.044206
78.126100,-444.123565,2960.823768,-86109.133975
78.128626,7402.059420,19541.436869,-78907.836294
78.131152,-3404.947333,-2516.700203,-87947.763170
78.133677,9326.594869,11547.212695,-75537.016103
78.136203,-888.247130,1036.288319,-81818.999186
78.138729,3997.112087,8586.388927,-79367.493593
78.141255,3108.864956,4589.276840,-81665.780087
78.143781,11103.089130,11547.212695,-77528.864398
78.146307,8586.388927,15692.365970,-77069.207099
78.148849,4885.359217,7698.141797,-80899.684589
78.151390,13915.871710,19541.436869,-76609.549800
78.153932,2368.659014,4589.276840,-77528.864398
78.156473,3108.864956,3552.988522,-74770.920605
78.159015,-2368.659014,8882.471304,-81818.999186
78.161556,11695.253884,19245.354492,-80899.684589
78.164098,4737.318029,2960.823768,-81206.122788
78.166639,8882.471304,9326.594869,-76609.549800
78.169181,6513.812290,23390.507767,-77375.645298
78.171722,1332.370696,-9622.677246,-84117.285680
78.174264,26499.372724,24426.796086,-64964.898230
78.176805,-37454.420665,-5181.441594,-86875.229473
78.179347,52850.704259,43524.109390,-58529.696047
78.181888,-76389.253214,-43672.150578,-107866.246118
78.184429,49001.633360,-4293.194464,-77835.302597
78.186971,-36122.049970,-2516.700203,-82738.313784
78.189512,28719.990550,41747.615129,-60521.544342
78.192054,-29312.155303,-37010.297100,-100052.072039
78.194595,12879.583391,-8586.388927,-80440.027290
78.197137,-23538.548956,16876.695478,-82738.313784
78.199678,6365.771101,10362.883188,-73391.948708
78.202220,-9770.718434,5921.647536,-71859.757712
78.204761,-888.247130,-22946.384202,-83504.409282
78.207303,-3997.112087,16728.654289,-74770.920605
78.209844,-17912.983796,-5033.400406,-82738.313784
78.212386,-888.247130,6809.894666,-72166.195912
78.214927,-7550.100608,-4589.276840,-79214.274493
78.217469,5477.523971,1924.535449,-78448.178995
78.220010,-13915.871710,1480.411884,-82431.875585
78.222552,3701.029710,4145.153275,-81359.341888
78.225093,-3849.070898,1332.370696,-84883.381178
78.227635,1036.288319,2220.617826,-74464.482406
78.230176,-13323.706956,-4441.235652,-78754.617194
78.232718,-7550.100608,-2960.823768,-83044.751983
78.235259,-4589.276840,1480.411884,-81665.780087
78.237801,-4145.153275,-6217.729913,-81512.560987
78.240342,6365.771101,11843.295072,-76762.768900
78.242884,-2516.700203,-2960.823768,-83810.847481
78.245425,-9178.553681,-2220.617826,-78754.617194
78.247967,0.000000,2516.700203,-78448.178995
78.250450,3849.070898,5477.523971,-79061.055394
78.252934,-10955.047942,-10658.965565,-81052.903688
78.255417,6957.935855,7105.977043,-77069.207099
78.257901,-25611.125593,-1332.370696,-77375.645298
78.260385,29312.155303,-7402.059420,-73545.167808
78.262868,-39082.873738,-27091.537477,-93310.431656
78.265352,93562.031069,67802.864287,-48264.016374
78.267836,-52702.663070,-18505.148550,-94229.746254
78.270319,-7402.059420,-11843.295072,-91931.459760
78.272803,-7105.977043,-6809.894666,-86262.353075
78.275287,19689.478057,41451.532752,-75077.358804
78.277770,-10066.800811,15100.201217,-84270.504780
78.280254,12879.583391,4885.359217,-75537.016103
78.282738,-9918.759623,-15544.324782,-84423.723880
78.285221,24130.713709,19689.478057,-78907.836294
78.287705,-4737.318029,32272.979071,-78141.740796
78.290188,13767.830521,-4441.235652,-76303.111601
78.292672,3404.947333,-1480.411884,-79980.369991
78.295156,11103.089130,16580.613101,-79827.150892
78.297639,6069.688724,24574.837274,-76303.111601
78.300123,-5033.400406,-7105.977043,-85036.600278
78.302607,7254.018232,14063.912898,-76762.768900
78.305090,-4589.276840,1480.411884,-81972.218286
78.307574,4885.359217,9770.718434,-74924.139704
78.310058,2368.659014,3404.947333,-84270.504780
78.312541,12583.501014,16876.695478,-78141.740796
78.315025,8290.306550,11695.253884,-81359.341888
78.317509,10066.800811,11695.253884,-79061.055394
78.319992,-3849.070898,5329.482782,-78907.836294
78.322476,6661.853478,6957.935855,-75230.577904
78.324959,296.082377,16876.695478,-74311.263306
78.327443,21614.013506,12583.501014,-75843.454302
78.329927,-11103.089130,-3701.029710,-83351.190182
78.332410,10658.965565,25463.084405,-72472.634111
78.334894,3256.906145,2072.576638,-79061.055394
78.337378,8438.347739,740.205942,-79520.712692
78.339861,14211.954086,16728.654289,-74617.701505
78.342345,-29460.196492,-7846.182985,-96221.594549
78.344829,34493.596897,43228.027013,-60215.106143
78.347312,-20873.807564,-38046.585419,-91778.240660
78.349822,-29312.155303,-14656.077652,-81818.999186
78.352332,38490.708984,20281.642811,-73391.948708
78.354842,-1184.329507,22650.301825,-75383.797003
78.357352,10362.883188,-26055.249158,-78601.398095
78.359861,-4145.153275,13027.624579,-73391.948708
78.362371,-12879.583391,148.041188,-85955.914876
78.364881,7846.182985,13915.871710,-75996.673402
78.367391,-11399.171507,-13619.789333,-85036.600278
78.369901,5921.647536,1628.453072,-76609.549800
78.372410,-9918.759623,5181.441594,-82431.875585
78.374920,-4145.153275,148.041188,-78294.959896
78.377430,-9770.718434,740.205942,-77528.864398
78.379940,7994.224174,-5921.647536,-79520.712692
78.382450,-2368.659014,6957.935855,-79214.274493
78.384959,740.205942,2368.659014,-81052.903688
78.387469,2220.617826,5773.606348,-78294.959896
78.389979,-2368.659014,-1332.370696,-77528.864398
78.392489,-9770.718434,2220.617826,-74924.139704
78.394999,-9030.512492,-11547.212695,-80593.246390
78.397509,-2072.576638,-2220.617826,-81052.903688
78.400018,5329.482782,8882.471304,-81665.780087
78.402528,296.082377,8882.471304,-77222.426198
78.405038,-10658.965565,-6069.688724,-78448.178995
78.407548,-17024.736666,-4441.235652,-78294.959896
78.410058,5033.400406,4885.359217,-79061.055394
78.412567,-18653.189738,740.205942,-79980.369991
78.415077,26055.249158,-1924.535449,-75996.673402
78.417587,-41895.656317,-7254.018232,-90399.268764
78.420097,31828.855506,22798.343014,-65577.774629
78.422607,-37602.461854,-10955.047942,-89939.611465
78.425116,35974.008781,23686.590144,-66803.527426
78.427626,-51222.251186,10066.800811,-94536.184453
78.430136,62621.422693,32272.979071,-61747.297139
78.432646,-53886.992578,-21465.972318,-83810.847481
78.435156,57291.939911,9030.512492,-68029.280222
78.437666,-9770.718434,34641.638086,-79061.055394
78.440175,11251.130318,7550.100608,-75690.235202
78.442685,1776.494261,-8882.471304,-74924.139704
78.445195,-2368.659014,-4441.235652,-81512.560987
78.447705,21762.054695,41599.573940,-68948.594820
78.450236,-13471.748144,4441.235652,-86109.133975
78.452766,7254.018232,-2368.659014,-73851.606007
78.455297,7994.224174,2072.576638,-83351.190182
78.457828,16136.489536,29016.072926,-76915.987999
78.460358,-592.164754,740.205942,-83351.190182
78.462889,5625.565159,8142.265362,-74311.263306
78.465420,2368.659014,1184.329507,-80286.808190
78.467951,2664.741391,5625.565159,-75537.016103
78.470481,7254.018232,7846.182985,-77988.521696
78.473012,8290.306550,17320.819043,-79367.493593
78.475543,8142.265362,16876.695478,-76456.330700
78.478074,4737.318029,1628.453072,-82125.437386
78.480604,-7402.059420,888.247130,-83504.409282
78.483135,7402.059420,10955.047942,-80593.246390
78.485666,11843.295072,20725.766376,-75996.673402
78.488196,19985.560434,2812.782580,-81972.218286
78.490727,-1924.535449,-5181.441594,-83197.971083
78.493258,14063.912898,33457.308578,-67569.622924
78.495789,3108.864956,-7698.141797,-85189.819378
78.498319,26647.413912,15396.283594,-75230.577904
78.500850,-13471.748144,-3997.112087,-85189.819378
78.503381,36122.049970,41747.615129,-63126.269035
78.505912,-58920.392983,-26647.413912,-92544.336158
78.508442,44264.315332,-4589.276840,-75077.358804
78.510973,-68098.946664,-13323.706956,-98979.538342
78.513504,42043.697506,33309.267390,-74464.482406
78.516034,-46484.933158,-17912.983796,-92237.897959
78.518565,8734.430116,-19097.313304,-81818.999186
78.521096,-18357.107362,12139.377449,-82891.532884
78.523627,-5477.523971,1924.535449,-85343.038477
78.526157,-5921.647536,10066.800811,-76149.892501
78.528688,-6365.771101,-11695.253884,-86109.133975
78.531219,4737.318029,-2664.741391,-79367.493593
78.533750,-1776.494261,7105.977043,-75843.454302
78.536280,-2368.659014,6069.688724,-76149.892501
78.538811,-19245.354492,-1332.370696,-81972.218286
78.541342,6513.812290,1628.453072,-76915.987999
78.543872,-4737.318029,5033.400406,-74617.701505
78.546403,-2664.741391,444.123565,-76915.987999
78.548934,5921.647536,6217.729913,-78294.959896
78.551480,-9474.636058,-3108.864956,-83197.971083
78.554026,-9030.512492,-3701.029710,-79367.493593
78.556573,-3256.906145,-4441.235652,-78294.959896
78.559119,3404.947333,9474.636058,-78141.740796
78.561665,4737.318029,4293.194464,-79367.493593
78.564211,-11991.336260,-9030.512492,-83504.409282
78.566758,-12583.501014,1776.494261,-82125.437386
78.569304,2664.741391,8142.265362,-80286.808190
78.571850,-5033.400406,6957.935855,-73391.948708
78.574396,15544.324782,-7846.182985,-73238.729609
78.576943,-40267.203245,-5181.441594,-89326.735067
78.579489,30200.402434,16728.654289,-64811.679131
78.582035,-35974.008781,-11399.171507,-88560.639569
78.584582,46929.056723,42487.821071,-60215.106143
78.587128,-57736.063476,3404.947333,-96374.813648
78.589674,67950.905476,28868.031738,-58529.696047
78.592220,-45448.644839,-19245.354492,-89020.296868
78.594767,43820.191766,3552.988522,-70634.004916
78.597313,-6513.812290,30348.443622,-74770.920605
78.599859,13767.830521,8882.471304,-73698.386908
78.602405,1036.288319,-13767.830521,-78448.178995
78.604952,-2368.659014,888.247130,-82431.875585
78.607498,23390.507767,42487.821071,-67263.184724
78.610044,-9326.594869,4293.194464,-82738.313784
78.612590,3256.906145,-1628.453072,-75843.454302
78.615137,1184.329507,2812.782580,-80593.246390
78.617683,12287.418637,21317.931130,-75537.016103
78.620229,-2812.782580,1628.453072,-85189.819378
78.622775,6957.935855,6217.729913,-76609.549800
78.625322,10807.006753,4885.359217,-78907.836294
78.627868,-888.247130,10066.800811,-76149.892501
78.630414,15692.365970,10955.047942,-77375.645298
78.632960,6069.688724,14656.077652,-81665.780087
78.635507,14804.118840,15840.407159,-74924.139704
78.638053,-4441.235652,-296.082377,-79673.931792
78.640599,-2960.823768,7994.224174,-80133.589091
78.643146,15248.242405,17320.819043,-78448.178995
78.645692,9770.718434,12287.418637,-79367.493593
78.648238,-9918.759623,-4885.359217,-82585.094684
78.650784,11547.212695,25018.960840,-70021.128517
78.653341,592.164754,-2812.782580,-79673.931792
78.655897,9622.677246,6957.935855,-80899.684589
78.658454,14063.912898,14952.160028,-76149.892501
78.661010,15100.201217,17912.983796,-74464.482406
78.663567,-22798.343014,740.205942,-78754.617194
78.666123,41747.615129,-9178.553681,-72932.291410
78.668679,-42043.697506,-16284.530724,-82278.656485
78.671236,45300.603650,13027.624579,-79367.493593
78.673792,-2368.659014,31384.731941,-75843.454302
78.676349,3701.029710,-31088.649564,-81206.122788
78.678905,10955.047942,888.247130,-66650.308326
78.681462,-8734.430116,592.164754,-86415.572174
78.684018,7105.977043,14063.912898,-71553.319513
78.686574,-11991.336260,-16136.489536,-83504.409282
78.689131,10510.924376,-6661.853478,-82431.875585
78.691687,-4145.153275,15544.324782,-79367.493593
78.694244,-2960.823768,-5625.565159,-80746.465489
78.696800,-5921.647536,-148.041188,-77682.083497
78.699357,2220.617826,-2812.782580,-81206.122788
78.701913,-4145.153275,5773.606348,-78907.836294
78.704470,-4737.318029,-2368.659014,-81359.341888
78.707026,3256.906145,5477.523971,-78601.398095
78.709582,-11103.089130,-2960.823768,-80899.684589
78.712139,-9622.677246,-8142.265362,-78294.959896
78.714695,-2072.576638,-1628.453072,-78754.617194
78.717252,-888.247130,11843.295072,-78907.836294
78.719808,-740.205942,4293.194464,-79520.712692
78.722365,-15100.201217,-7994.224174,-76149.892501
78.724921,-1332.370696,2812.782580,-79980.369991
78.727478,6069.688724,4293.194464,-81512.560987
78.730034,-7994.224174,-5181.441594,-78294.959896
78.732590,5181.441594,5181.441594,-77528.864398
78.735147,-18653.189738,-4589.276840,-79367.493593
78.737703,30496.484810,-3108.864956,-72932.291410
78.740260,-37158.338288,-21021.848753,-90705.706963
78.742816,104665.120199,68691.111418,-46885.044478
78.745373,-26499.372724,-444.123565,-86722.010374
78.747929,5329.482782,-16136.489536,-91471.802461
78.750486,-24722.878463,888.247130,-87181.667672
78.753042,34493.596897,36122.049970,-75537.016103
78.755607,-10658.965565,9622.677246,-89020.296868
78.758171,18653.189738,6661.853478,-76762.768900
78.760736,-12731.542202,-14804.118840,-83657.628382
78.763301,23390.507767,13027.624579,-81052.903688
78.765866,148.041188,28275.866984,-80440.027290
78.768430,8290.306550,-3849.070898,-75537.016103
78.770995,2368.659014,-1924.535449,-81512.560987
78.773560,14211.954086,21614.013506,-76609.549800
78.776124,-148.041188,14063.912898,-76609.549800
78.778689,-3552.988522,-5625.565159,-77682.083497
78.781254,12139.377449,11251.130318,-78141.740796
78.783819,-148.041188,8142.265362,-85802.695776
78.786383,11843.295072,12287.418637,-73698.386908
78.788948,3997.112087,3849.070898,-81665.780087
78.791513,7698.141797,12879.583391,-77835.302597
78.794077,1184.329507,4737.318029,-84117.285680
78.796642,-2368.659014,11843.295072,-79827.150892
78.799207,20725.766376,16580.613101,-75537.016103
78.801772,-1628.453072,888.247130,-77682.083497
78.804336,5921.647536,2812.782580,-76456.330700
78.806901,15692.365970,33161.226202,-76609.549800
78.809466,7105.977043,-8290.306550,-81206.122788
78.812030,18505.148550,16580.613101,-71093.662214
78.814595,-29460.196492,-11547.212695,-88560.639569
78.817160,51962.457128,55219.363273,-51788.055665
78.819725,-82755.024316,-53442.869012,-112003.161808
78.822289,56551.733969,14508.036463,-72779.072310
78.824854,-88084.507098,-14063.912898,-103269.673130
78.827419,36418.132346,45152.562462,-59449.010645
78.829983,-22650.301825,-23982.672521,-92850.774358
78.832548,11695.253884,-12287.418637,-79367.493593
78.835113,-19245.354492,9474.636058,-78448.178995
78.837678,11695.253884,5921.647536,-76609.549800
78.840242,-6217.729913,5181.441594,-74770.920605
78.842807,-5625.565159,-18061.024985,-82738.313784
78.845372,6069.688724,9178.553681,-71553.319513
78.847937,-9326.594869,4885.359217,-79673.931792
78.850501,1480.411884,3997.112087,-77528.864398
78.853066,-3701.029710,-2960.823768,-83504.409282
78.855631,8882.471304,12287.418637,-79061.055394
78.858202,-11991.336260,-2664.741391,-81052.903688
78.860774,2220.617826,1332.370696,-76915.987999
78.863345,-9622.677246,-4441.235652,-80133.589091
78.865916,-2368.659014,-5773.606348,-78754.617194
78.868488,-1776.494261,-148.041188,-78294.959896
78.871059,1628.453072,-740.205942,-82738.313784
78.873631,-5477.523971,1924.535449,-83964.066581
78.876202,-13027.624579,-2368.659014,-83044.751983
78.878774,7254.018232,6069.688724,-76762.768900
78.881345,-2664.741391,1924.535449,-76456.330700
78.883916,1036.288319,-7698.141797,-76915.987999
78.886488,-8290.306550,8586.388927,-79673.931792
78.889059,-8882.471304,-6661.853478,-80746.465489
78.891631,-23242.466579,-12435.459826,-94842.622652
78.894202,8586.388927,9770.718434,-81052.903688
78.896774,592.164754,31088.649564,-78907.836294
78.899345,11991.336260,14656.077652,-77222.426198
78.901916,-30940.608376,-22798.343014,-103882.549529
78.904488,-8142.265362,8438.347739,-83810.847481
78.907059,15544.324782,43820.191766,-77222.426198
78.909631,-10955.047942,13027.624579,-84730.162079
78.912202,11843.295072,-11399.171507,-78141.740796
78.914774,-6957.935855,148.041188,-82738.313784
78.917345,33309.267390,33309.267390,-73085.510509
78.919916,-3552.988522,21614.013506,-79061.055394
78.922488,6069.688724,-1332.370696,-71400.100414
78.925059,1332.370696,-4737.318029,-77528.864398
78.927631,11991.336260,18209.066173,-75690.235202
78.930202,9030.512492,15840.407159,-75996.673402
78.932774,-6661.853478,-5477.523971,-79827.150892
78.935345,8882.471304,9474.636058,-81206.122788
78.937916,5921.647536,11991.336260,-77988.521696
78.940488,11843.295072,9918.759623,-77528.864398
78.943059,5921.647536,11991.336260,-81972.218286
78.945631,2368.659014,14952.160028,-77835.302597
78.948202,-1924.535449,3849.070898,-78907.836294
78.950773,17912.983796,14211.954086,-76609.549800
78.953345,-1036.288319,6365.771101,-81052.903688
78.955916,1184.329507,6957.935855,-78141.740796
78.958488,15100.201217,35085.761651,-72932.291410
78.961063,148.041188,-21762.054695,-92391.117059
78.963638,16284.530724,15100.201217,-77988.521696
78.966212,-8882.471304,9178.553681,-82125.437386
78.968787,33161.226202,25759.166782,-70174.347617
78.971362,-38490.708984,-11991.336260,-81665.780087
78.973937,50185.962868,-13767.830521,-69255.033019
78.976512,-92525.742750,-10214.842000,-106180.836023
78.979087,43968.232955,39378.956114,-67416.403824
78.981662,-43968.232955,-5329.482782,-79980.369991
78.984236,3701.029710,-27831.743419,-76149.892501
78.986811,-14211.954086,14359.995275,-76456.330700
78.989386,-3997.112087,5181.441594,-86568.791274
78.991961,9918.759623,13323.706956,-71400.100414
78.994536,-13915.871710,-23538.548956,-84270.504780
78.997111,9474.636058,11251.130318,-74158.044206
78.999686,-14952.160028,6661.853478,-78448.178995
79.002261,6365.771101,1036.288319,-75690.235202
79.004835,-10214.842000,-5477.523971,-83964.066581
79.007410,7402.059420,6661.853478,-79061.055394
79.009985,-6365.771101,3701.029710,-79520.712692
79.012560,-2368.659014,-2960.823768,-77682.083497
79.015135,-6513.812290,-1776.494261,-78294.959896
79.017710,-11103.089130,-3552.988522,-80286.808190
79.020285,-592.164754,4589.276840,-77375.645298
79.022860,-5477.523971,-4737.318029,-83044.751983
79.025434,-5773.606348,4441.235652,-77528.864398
79.028009,-4441.235652,2072.576638,-79061.055394
79.030584,-3701.029710,592.164754,-82125.437386
79.033159,-18653.189738,-11843.295072,-84730.162079
79.035734,27979.784608,6809.894666,-80286.808190
79.038309,-33013.185013,1332.370696,-79367.493593
79.040884,41155.450375,3108.864956,-60521.544342
79.043458,-48557.509795,-11695.253884,-85649.476676
79.046033,75945.129649,50630.086433,-55312.094956
79.048608,-71207.811620,-8290.306550,-101124.605736
79.051183,92229.660373,26055.249158,-48417.235474
79.053758,-62325.340316,-24278.754898,-87641.324971
79.056333,44264.315332,12583.501014,-68642.156621
79.058908,4441.235652,43079.985824,-77222.426198
79.061483,11843.295072,7698.141797,-77222.426198
79.064061,-888.247130,-15100.201217,-79520.712692
79.066638,2812.782580,6957.935855,-78294.959896
79.069216,29460.196492,39230.914926,-68795.375720
79.071793,-8586.388927,1776.494261,-84730.162079
79.074371,12731.542202,7402.059420,-71093.662214
79.076948,-5329.482782,-8882.471304,-85496.257577
79.079526,19393.395680,25907.207970,-72779.072310
79.082103,-8734.430116,-6809.894666,-86568.791274
79.084680,14952.160028,15544.324782,-74770.920605
79.087258,3108.864956,4589.276840,-83657.628382
79.089835,13767.830521,18949.272115,-74770.920605
79.092413,11399.171507,9030.512492,-79827.150892
79.094990,-5181.441594,6661.853478,-82585.094684
79.097568,13915.871710,17320.819043,-74158.044206
79.100145,8290.306550,6661.853478,-77682.083497
79.102722,-3552.988522,3404.947333,-81665.780087
79.105300,296.082377,5921.647536,-80746.465489
79.107877,15840.407159,38786.791361,-68642.156621
79.110455,-1332.370696,-20725.766376,-87947.763170
79.113032,17024.736666,8142.265362,-77682.083497
79.115609,-12139.377449,10658.965565,-86109.133975
79.118187,27091.537477,23982.672521,-76149.892501
79.120764,-32272.979071,-2368.659014,-78754.617194
79.123342,47521.221476,-444.123565,-73085.510509
79.125919,-85419.765707,-8882.471304,-101584.263035
79.128497,38046.585419,33161.226202,-68488.937521
79.131074,-38194.626607,-3701.029710,-82278.656485
79.133651,296.082377,-27683.702231,-83044.751983
79.136229,-11991.336260,14508.036463,-78754.617194
79.138806,-5921.647536,8734.430116,-82431.875585
79.141384,8290.306550,8290.306550,-70787.224015
79.143961,-17024.736666,-23982.672521,-90246.049664
79.146541,7105.977043,9770.718434,-75383.797003
79.149121,-17764.942608,7550.100608,-79061.055394
79.151701,8734.430116,3404.947333,-77222.426198
79.154281,-12731.542202,-6365.771101,-82125.437386
79.156861,9030.512492,8586.388927,-74311.263306
79.159440,-7846.182985,888.247130,-79214.274493
79.162020,-2072.576638,-3849.070898,-80133.589091
79.164600,-8438.347739,-1628.453072,-78448.178995
79.167180,-9770.718434,1036.288319,-77528.864398
79.169760,5329.482782,-888.247130,-77835.302597
79.172340,-14508.036463,-5625.565159,-83351.190182
79.174920,-3108.864956,5181.441594,-78754.617194
79.177499,1628.453072,7105.977043,-80133.589091
79.180079,-10066.800811,-740.205942,-77222.426198
79.182659,-9918.759623,-19541.436869,-80133.589091
79.185239,-444.123565,13323.706956,-88560.639569
79.187819,10658.965565,8882.471304,-77988.521696
79.190399,-41303.491564,-14211.954086,-82738.313784
79.192979,45448.644839,31680.814318,-61594.078039
79.195559,-49149.674549,7994.224174,-96068.375449
79.198138,76833.376780,33013.185013,-58223.257848
79.200718,-51666.374752,-25463.084405,-88407.420469
79.203298,36270.091158,9030.512492,-64352.021832
79.205878,1480.411884,43376.068201,-72932.291410
79.208458,11399.171507,9030.512492,-74924.139704
79.211038,3701.029710,-17912.983796,-77988.521696
79.213618,-1184.329507,1036.288319,-81665.780087
79.216198,27535.661042,39082.873738,-71093.662214
79.218777,-6809.894666,11991.336260,-81818.999186
79.221357,12435.459826,4737.318029,-69101.813920
79.223937,-10362.883188,-7550.100608,-83044.751983
79.226517,17468.860231,23982.672521,-72932.291410
79.229097,2516.700203,-4145.153275,-82278.656485
79.231677,11695.253884,14211.954086,-72012.976812
79.234257,3849.070898,1480.411884,-84117.285680
79.236836,16432.571912,18061.024985,-78907.836294
79.239416,9918.759623,12583.501014,-80286.808190
79.241996,-444.123565,7254.018232,-79673.931792
79.244576,11251.130318,10955.047942,-75690.235202
79.247156,9178.553681,7402.059420,-79827.150892
79.249687,-18801.230927,2960.823768,-81512.560987
79.252218,10658.965565,24722.878463,-74617.701505
79.254749,4145.153275,10214.842000,-79061.055394
79.257280,740.205942,-9474.636058,-82585.094684
79.259811,11103.089130,17468.860231,-74158.044206
79.262342,-33457.308578,-15396.283594,-96221.594549
79.264873,56107.610404,57439.981099,-56384.628653
79.267404,-71503.893997,-43376.068201,-108479.122517
79.269935,49445.756926,8142.265362,-59908.667944
79.272466,17616.901420,-3108.864956,-75843.454302
79.274997,20725.766376,40711.326810,-66190.651027
79.277528,-2220.617826,-30792.567187,-89173.515967
79.280059,9622.677246,-8290.306550,-69101.813920
79.282590,-19985.560434,8290.306550,-75690.235202
79.285121,14063.912898,9770.718434,-74464.482406
79.287652,-10955.047942,592.164754,-78601.398095
79.290184,-16432.571912,-27239.578666,-91471.802461
79.292715,-3701.029710,12731.542202,-72932.291410
79.295246,-2220.617826,2368.659014,-81972.218286
79.297777,1776.494261,2812.782580,-82891.532884
79.300308,-6365.771101,-2072.576638,-85343.038477
79.302839,1480.411884,8734.430116,-76149.892501
79.305370,-9030.512492,-6809.894666,-79367.493593
79.307901,-2664.741391,-4441.235652,-78907.836294
79.310432,-13767.830521,-4737.318029,-82431.875585
79.312963,-3552.988522,1628.453072,-79061.055394
79.315494,-9770.718434,-148.041188,-83504.409282
79.318025,-6661.853478,5181.441594,-80286.808190
79.320556,3701.029710,5921.647536,-75996.673402
79.323087,-23538.548956,-11547.212695,-81359.341888
79.325618,-1332.370696,-10362.883188,-83810.847481
79.328149,-10955.047942,11695.253884,-89020.296868
79.330680,-4293.194464,2812.782580,-83504.409282
79.333211,-32421.020260,-15248.242405,-86722.010374
79.335742,21465.972318,19689.478057,-70174.347617
79.338273,-26499.372724,18505.148550,-87488.105872
79.340804,42635.862259,25611.125593,-67876.061123
79.343335,-46632.974346,-20873.807564,-96221.594549
79.345866,6365.771101,8734.430116,-73238.729609
79.348397,4293.194464,38490.708984,-75996.673402
79.350940,-7254.018232,18061.024985,-80440.027290
79.353482,444.123565,-15544.324782,-79673.931792
79.356025,-2960.823768,148.041188,-79980.369991
79.358568,26795.455100,31088.649564,-71706.538613
79.361110,-8586.388927,17616.901420,-81972.218286
79.363653,20577.725188,5033.400406,-71400.100414
79.366195,-17912.983796,-6809.894666,-83810.847481
79.368738,18061.024985,20133.601622,-72932.291410
79.371281,3404.947333,10658.965565,-76762.768900
79.373823,5033.400406,12879.583391,-73698.386908
79.376366,8586.388927,8290.306550,-82431.875585
79.378908,7550.100608,16728.654289,-79827.150892
79.381451,10955.047942,10807.006753,-78601.398095
79.383993,1480.411884,7994.224174,-77988.521696
79.386536,7846.182985,9030.512492,-77375.645298
79.389079,2960.823768,5773.606348,-81818.999186
79.391621,-5773.606348,3997.112087,-79520.712692
79.394164,18357.107362,33901.432144,-74004.825107
79.396706,444.123565,-11695.253884,-86262.353075
79.399249,2516.700203,6217.729913,-78907.836294
79.401792,-6365.771101,11991.336260,-82278.656485
79.404334,31828.855506,22946.384202,-75843.454302
79.406877,-30792.567187,-5921.647536,-76915.987999
79.409419,44856.480085,-9326.594869,-64352.021832
79.411962,-47521.221476,-14508.036463,-80593.246390
79.414505,52258.539505,9622.677246,-82738.313784
79.417047,-31680.814318,3849.070898,-77375.645298
79.419590,-888.247130,-30792.567187,-74617.701505
79.422132,-14656.077652,9622.677246,-74770.920605
79.424675,-7846.182985,9918.759623,-88254.201370
79.427217,12139.377449,11843.295072,-78754.617194
79.429760,-14952.160028,-27091.537477,-85343.038477
79.432303,6069.688724,296.082377,-74924.139704
79.434845,-8734.430116,10510.924376,-80286.808190
79.437388,12287.418637,2072.576638,-74464.482406
79.439930,-9030.512492,-8438.347739,-82585.094684
79.442473,2368.659014,7402.059420,-78141.740796
79.445016,-1332.370696,2812.782580,-81512.560987
79.447558,-7254.018232,-7698.141797,-81052.903688
79.450101,-4737.318029,-1924.535449,-77988.521696
79.452653,-9030.512492,-1036.288319,-80286.808190
79.455205,-1036.288319,296.082377,-77375.645298
79.457757,444.123565,3108.864956,-80440.027290
79.460309,-3108.864956,4737.318029,-81052.903688
79.462861,-17468.860231,-11991.336260,-83504.409282
79.465413,1776.494261,-6069.688724,-80133.589091
79.467965,-18505.148550,12435.459826,-85496.257577
79.470517,-148.041188,6513.812290,-77222.426198
79.473069,-10658.965565,-17468.860231,-87334.886772
79.475620,-9326.594869,-6217.729913,-87947.763170
79.478172,-33605.349767,13767.830521,-93157.212557
79.480724,54331.116143,31384.731941,-61594.078039
79.483276,-47669.262665,-18061.024985,-90705.706963
79.485828,13323.706956,8142.265362,-68795.375720
79.488380,3552.988522,39675.038491,-74924.139704
79.490932,888.247130,16876.695478,-78448.178995
79.493484,10658.965565,-4293.194464,-75996.673402
79.496036,-16284.530724,-7698.141797,-82738.313784
79.498588,21317.931130,26351.331535,-73851.606007
79.501140,148.041188,14508.036463,-81665.780087
79.503692,15248.242405,4885.359217,-73545.167808
79.506244,-14359.995275,-2072.576638,-83197.971083
79.508796,14359.995275,14952.160028,-73391.948708
79.511348,-740.205942,444.123565,-80440.027290
79.513900,8882.471304,7254.018232,-77988.521696
79.516452,8438.347739,15544.324782,-80899.684589
79.519004,7105.977043,14804.118840,-78907.836294
79.521556,2960.823768,6217.729913,-81359.341888
79.524108,10362.883188,14804.118840,-81972.218286
79.526660,-1036.288319,8734.430116,-79827.150892
79.529212,-3701.029710,1628.453072,-75690.235202
79.531764,13471.748144,20873.807564,-73698.386908
79.534316,11547.212695,18801.230927,-79980.369991
79.536868,-592.164754,-4737.318029,-84117.285680
79.539420,13027.624579,12879.583391,-70480.785816
79.541972,-23094.425390,-14656.077652,-95761.937250
79.544524,51518.333563,48261.427418,-62206.954438
79.547076,-63361.628635,-37454.420665,-101890.701234
79.549628,44116.274143,12435.459826,-61594.078039
79.552180,-50037.921679,-9178.553681,-80440.027290
79.554738,28275.866984,35974.008781,-56844.285952
79.557297,-23834.631332,-28571.949361,-94382.965354
79.559855,0.000000,-14656.077652,-85802.695776
79.562414,-19689.478057,12583.501014,-72166.195912
79.564972,9326.594869,11103.089130,-75077.358804
79.567531,-3256.906145,-3997.112087,-78601.398095
79.570089,-10066.800811,-25315.043216,-85649.476676
79.572648,-5033.400406,15100.201217,-72472.634111
79.575206,-5625.565159,1036.288319,-83044.751983
79.577765,1332.370696,6365.771101,-75077.358804
79.580323,-7105.977043,-7402.059420,-82431.875585
79.582882,8142.265362,10066.800811,-75843.454302
79.585440,-11399.171507,-9326.594869,-81818.999186
79.587999,1332.370696,-6069.688724,-75230.577904
79.590557,-14211.954086,-7402.059420,-79980.369991
79.593116,-4589.276840,3404.947333,-81665.780087
79.595674,9622.677246,11251.130318,-77988.521696
79.598233,-8290.306550,-592.164754,-77222.426198
79.600791,740.205942,-6365.771101,-72625.853210
79.603350,-6217.729913,-11991.336260,-81206.122788
79.605908,-29608.237680,6069.688724,-78754.617194
79.608467,29016.072926,8882.471304,-63126.269035
79.611025,-42339.779882,-25315.043216,-92391.117059
79.613584,53590.910201,37454.420665,-61900.516238
79.616142,-56995.857534,-3552.988522,-98366.661943
79.618701,92229.660373,41895.656317,-51175.179266
79.621259,-60844.928432,-21169.889941,-91625.021561
79.623818,21169.889941,1332.370696,-67569.622924
79.626376,-2516.700203,29312.155303,-79827.150892
79.628935,23982.672521,18209.066173,-72625.853210
79.631493,-6513.812290,-12435.459826,-77222.426198
79.634051,3108.864956,-2220.617826,-80133.589091
79.636610,27831.743419,38194.626607,-70480.785816
79.639168,1924.535449,11843.295072,-82891.532884
79.641727,17616.901420,8142.265362,-68029.280222
79.644285,-17764.942608,-3256.906145,-81052.903688
79.646844,17172.777854,18949.272115,-76456.330700
79.649402,-2664.741391,-4885.359217,-85649.476676
79.651961,13915.871710,17764.942608,-72166.195912
79.654519,7105.977043,11547.212695,-77682.083497
79.657083,21317.931130,17912.983796,-73085.510509
79.659648,3997.112087,3552.988522,-81665.780087
79.662212,9326.594869,10214.842000,-79214.274493
79.664776,-3849.070898,4293.194464,-78907.836294
79.667340,1924.535449,8142.265362,-79980.369991
79.669904,31976.896694,27387.619854,-71859.757712
79.672468,-2664.741391,-5773.606348,-82585.094684
79.675032,16136.489536,10510.924376,-70327.566716
79.677596,-17024.736666,296.082377,-82278.656485
79.680160,57588.022288,43672.150578,-54086.342159
79.682724,-61289.051998,-50482.045244,-97447.347346
79.685288,35381.844028,6661.853478,-68795.375720
79.687852,-79942.241736,-6217.729913,-102810.015832
79.690416,28127.825796,41155.450375,-54392.780358
79.692980,-26351.331535,-38490.708984,-91471.802461
79.695544,7105.977043,-12731.542202,-83964.066581
79.698108,-27387.619854,10362.883188,-89020.296868
79.700672,15544.324782,13915.871710,-80286.808190
79.703236,-5033.400406,3404.947333,-74770.920605
79.705800,-10362.883188,-29460.196492,-85649.476676
79.708364,-1184.329507,17320.819043,-70021.128517
79.710928,-3849.070898,-592.164754,-81206.122788
79.713492,6661.853478,7846.182985,-74924.139704
79.716056,-2812.782580,-5921.647536,-82125.437386
79.718620,3701.029710,7994.224174,-72625.853210
79.721184,-7550.100608,-7105.977043,-80286.808190
79.723748,-3997.112087,-9474.636058,-79980.369991
79.726312,-13027.624579,-2812.782580,-81206.122788
79.728876,-7994.224174,1332.370696,-79673.931792
79.731440,14508.036463,9622.677246,-77222.426198
79.734004,-3108.864956,-3404.947333,-84117.285680
79.736568,-17320.819043,-12879.583391,-80440.027290
79.739132,26203.290347,14211.954086,-70634.004916
79.741696,-24722.878463,12731.542202,-78294.959896
79.744260,37454.420665,14656.077652,-59449.010645
79.746824,-42931.944636,-26351.331535,-86722.010374
79.749388,40859.367998,30052.361245,-60215.106143
79.751952,-58624.310606,-15692.365970,-101890.701234
79.754516,95042.442953,36566.173535,-52247.712964
79.757080,-45152.562462,-14804.118840,-85802.695776
79.759649,52554.621882,3404.947333,-61440.858940
79.762218,2664.741391,34345.555709,-72472.634111
79.764786,24278.754898,18801.230927,-71859.757712
79.767355,2664.741391,-10955.047942,-74311.263306
79.769924,-2516.700203,-6069.688724,-77069.207099
79.772492,31828.855506,34937.720462,-74617.701505
79.775061,3849.070898,5181.441594,-84576.942979
79.777629,11251.130318,5477.523971,-72779.072310
79.780198,-11399.171507,-1036.288319,-81665.780087
79.782767,15396.283594,16728.654289,-71706.538613
79.785335,-5477.523971,-2960.823768,-86415.572174
79.787904,11843.295072,16580.613101,-77988.521696
79.790473,2960.823768,14359.995275,-82125.437386
79.793041,18357.107362,17320.819043,-74464.482406
79.795610,3701.029710,8882.471304,-82278.656485
79.798179,-10066.800811,1184.329507,-84576.942979
79.800747,7550.100608,12583.501014,-74004.825107
79.803316,-444.123565,26351.331535,-76609.549800
79.805884,23094.425390,1332.370696,-82278.656485
79.808453,-15840.407159,-1332.370696,-87947.763170
79.811022,9622.677246,23834.631332,-73851.606007
79.813590,-16876.695478,-6365.771101,-92237.897959
79.816159,-13323.706956,-18061.024985,-83810.847481
79.818728,18505.148550,888.247130,-68948.594820
79.821296,-29904.320057,-444.123565,-73085.510509
79.823865,22354.219448,296.082377,-79673.931792
79.826433,10214.842000,30940.608376,-77988.521696
79.829002,1332.370696,-38194.626607,-90858.926063
79.831571,-2516.700203,11695.253884,-62819.830836
79.834139,-25018.960840,8586.388927,-71859.757712
79.836708,14656.077652,11991.336260,-79827.150892
79.839277,-11251.130318,-19837.519246,-85955.914876
79.841845,-2516.700203,-5625.565159,-75230.577904
79.844414,-5181.441594,9178.553681,-75843.454302
79.846982,8734.430116,2664.741391,-83197.971083
79.849551,-6957.935855,3404.947333,-83351.190182
79.852120,-2960.823768,296.082377,-78601.398095
79.854688,3701.029710,1480.411884,-70480.785816
79.857257,-7105.977043,-7846.182985,-85343.038477
79.859826,-6809.894666,1628.453072,-78601.398095
79.862397,-9326.594869,-5773.606348,-77069.207099
79.864968,18653.189738,15396.283594,-73085.510509
79.867539,-4145.153275,-4441.235652,-85343.038477
79.870111,-14063.912898,-18653.189738,-82738.313784
79.872682,14063.912898,14952.160028,-73391.948708
79.875253,-22946.384202,9030.512492,-83810.847481
79.877824,24574.837274,1924.535449,-66956.746525
79.880396,-49149.674549,-21910.095883,-89479.954166
79.882967,50778.127621,31384.731941,-66343.870127
79.885538,-54775.239708,13619.789333,-98366.661943
79.888109,87344.301156,38194.626607,-51328.398366
79.890681,-58920.392983,-28571.949361,-90092.830565
79.893252,39082.873738,8734.430116,-68029.280222
79.895823,444.123565,40859.367998,-76456.330700
79.898394,10955.047942,21169.889941,-69408.252119
79.900966,-1036.288319,-15100.201217,-80440.027290
79.903537,-296.082377,5477.523971,-80440.027290
79.906108,36566.173535,39971.120868,-65118.117330
79.908679,-296.082377,3849.070898,-77682.083497
79.911251,16136.489536,5329.482782,-68795.375720
79.913822,-9622.677246,1776.494261,-80286.808190
79.916393,12879.583391,14063.912898,-73391.948708
79.918965,-1184.329507,-4293.194464,-86109.133975
79.921536,19393.395680,23982.672521,-74311.263306
79.924107,11251.130318,18505.148550,-72472.634111
79.926678,14063.912898,10214.842000,-73698.386908
79.929250,10955.047942,5181.441594,-78141.740796
79.931821,-12139.377449,2072.576638,-82891.532884
79.934392,8882.471304,15544.324782,-76303.111601
79.936963,24278.754898,32124.937883,-74004.825107
79.939535,7994.224174,-6217.729913,-84883.381178
79.942106,8438.347739,8734.430116,-71093.662214
79.944677,-29164.114115,5477.523971,-81206.122788
79.947248,48409.468607,36714.214723,-63279.488135
79.949820,-63805.752200,-58476.269418,-105414.740525
79.952391,28275.866984,7105.977043,-69101.813920
79.954962,-77721.623910,-2664.741391,-101584.263035
79.957533,43228.027013,43672.150578,-67569.622924
79.960105,-26499.372724,-15248.242405,-82738.313784
79.962676,2220.617826,-17172.777854,-83964.066581
79.965249,-17764.942608,23390.507767,-82431.875585
79.967823,2960.823768,11399.171507,-79827.150892
79.970396,11991.336260,888.247130,-68795.375720
79.972970,-16432.571912,-34197.514520,-88560.639569
79.975543,-3108.864956,20429.683999,-73391.948708
79.978117,-9622.677246,-4145.153275,-87334.886772
79.980690,6809.894666,9474.636058,-72166.195912
79.983264,-13027.624579,-5921.647536,-91318.583362
79.985837,740.205942,11399.171507,-76915.987999
79.988411,-6217.729913,-8438.347739,-79827.150892
79.990984,-10362.883188,-12731.542202,-80440.027290
79.993558,-8142.265362,2664.741391,-74770.920605
79.996131,7550.100608,9474.636058,-77682.083497
79.998705,-1480.411884,-1924.535449,-83504.409282
80.001278,-9918.759623,-21021.848753,-87181.667672
80.003852,15988.448347,22206.178260,-67722.842023
80.006425,-24870.919651,13471.748144,-77988.521696
80.008999,29904.320057,3404.947333,-64658.460031
80.011572,-35233.802839,-29460.196492,-90705.706963
80.014146,24278.754898,17764.942608,-74924.139704
80.016719,-29756.278868,30200.402434,-89786.392366
80.019293,56255.651592,39971.120868,-59449.010645
80.021866,-52702.663070,-27831.743419,-96068.375449
80.024440,40267.203245,3404.947333,-68182.499322
80.027013,13175.665768,38194.626607,-75077.358804
80.029587,21169.889941,13323.706956,-77222.426198
80.032160,592.164754,-13471.748144,-79214.274493
80.034734,0.000000,2812.782580,-77835.302597
80.037307,31680.814318,37306.379477,-67263.184724
80.039881,3997.112087,2072.576638,-83351.190182
80.042454,8586.388927,5773.606348,-73391.948708
80.045028,-6513.812290,3108.864956,-84117.285680
80.047601,16136.489536,10214.842000,-72166.195912
80.050175,444.123565,1184.329507,-81359.341888
80.052748,16728.654289,19985.560434,-74924.139704
80.055322,15988.448347,19689.478057,-78754.617194
80.057895,18061.024985,9030.512492,-80440.027290
80.060469,-10214.842000,-5921.647536,-81665.780087
80.063042,8438.347739,8142.265362,-74158.044206
80.065616,11103.089130,33457.308578,-75077.358804
80.068192,19245.354492,-5773.606348,-82431.875585
80.070767,-2072.576638,-2220.617826,-77988.521696
80.073342,4737.318029,21169.889941,-74464.482406
80.075917,3701.029710,6365.771101,-89020.296868
80.078492,25315.043216,7846.182985,-73238.729609
80.081067,-13471.748144,-35085.761651,-83810.847481
80.083642,12731.542202,12435.459826,-58223.257848
80.086218,-3404.947333,3256.906145,-81052.903688
80.088793,4145.153275,20577.725188,-76762.768900
80.091368,10066.800811,-46929.056723,-82585.094684
80.093943,-11843.295072,13471.748144,-64045.583633
80.096518,-14656.077652,16136.489536,-76303.111601
80.099093,11695.253884,13767.830521,-74158.044206
80.101669,-4145.153275,-21021.848753,-81206.122788
80.104244,-2664.741391,-13471.748144,-80899.684589
80.106819,-3701.029710,20577.725188,-71553.319513
80.109394,7698.141797,-1332.370696,-77375.645298
80.111969,-2960.823768,1036.288319,-78754.617194
80.114544,-3256.906145,-6661.853478,-81052.903688
80.117119,-5329.482782,3404.947333,-74464.482406
80.119695,-8586.388927,-19689.478057,-84883.381178
80.122270,-1480.411884,2220.617826,-75230.577904
80.124845,1480.411884,7254.018232,-77222.426198
80.127420,3256.906145,4293.194464,-81206.122788
80.129995,-4441.235652,-18653.189738,-80899.684589
80.132570,9770.718434,7994.224174,-72472.634111
80.135145,-27387.619854,18505.148550,-79061.055394
80.137721,18801.230927,8290.306550,-72779.072310
80.140296,-29016.072926,-30644.525999,-93770.088955
80.142871,22206.178260,4885.359217,-78601.398095
80.145446,-29608.237680,32421.020260,-89326.735067
80.148021,49741.839302,41895.656317,-67263.184724
80.150596,-46188.850781,-21762.054695,-85189.819378
80.153171,32272.979071,-3849.070898,-66803.527426
80.155747,13175.665768,48409.468607,-68948.594820
80.158322,-1184.329507,17024.736666,-76456.330700
80.160897,19985.560434,-1036.288319,-73238.729609
80.163472,-26943.496289,-16284.530724,-83504.409282
80.166047,39082.873738,29608.237680,-65577.774629
80.168622,-1184.329507,19689.478057,-83197.971083
80.171198,14656.077652,6513.812290,-75383.797003
80.173774,-10807.006753,444.123565,-81206.122788
80.176350,20133.601622,15248.242405,-72932.291410
80.178926,-2220.617826,2220.617826,-85802.695776
80.181502,12879.583391,17024.736666,-79673.931792
80.184078,17764.942608,27683.702231,-72166.195912
80.186653,10362.883188,3849.070898,-77682.083497
80.189229,1776.494261,740.205942,-77222.426198
80.191805,-5477.523971,444.123565,-79367.493593
80.194381,20429.683999,40415.244433,-73545.167808
80.196957,15396.283594,-4145.153275,-83810.847481
80.199533,-1036.288319,2812.782580,-76456.330700
80.202109,-3108.864956,11547.212695,-75537.016103
80.204685,17764.942608,18505.148550,-83044.751983
80.207260,-11695.253884,-16728.654289,-86109.133975
80.209836,23094.425390,-12731.542202,-71553.319513
80.212412,-30348.443622,1628.453072,-70787.224015
80.214988,46781.015534,29756.278868,-79061.055394
80.217564,-11695.253884,22502.260637,-77528.864398
80.220140,3997.112087,-48113.386230,-77528.864398
80.222716,-17320.819043,14211.954086,-64964.898230
80.225292,-17320.819043,6661.853478,-84730.162079
80.227867,13323.706956,14952.160028,-78907.836294
80.230443,-5181.441594,-18209.066173,-87334.886772
80.233019,-5181.441594,-6513.812290,-79980.369991
80.235595,-5181.441594,2368.659014,-78141.740796
80.238171,16728.654289,3997.112087,-72932.291410
80.240747,-10066.800811,-2960.823768,-83657.628382
80.243323,-5625.565159,-1184.329507,-80440.027290
80.245899,-8586.388927,-1776.494261,-76762.768900
80.248474,-11547.212695,-20133.601622,-85343.038477
80.251050,5921.647536,12287.418637,-74158.044206
80.253626,-1924.535449,6069.688724,-79673.931792
80.256202,-8438.347739,-5181.441594,-77069.207099
80.258778,-15100.201217,-23538.548956,-85496.257577
80.261354,-592.164754,17468.860231,-83351.190182
80.263930,-17468.860231,10807.006753,-85036.600278
80.266505,20873.807564,-14508.036463,-77988.521696
80.269081,-45596.686027,-34937.720462,-88713.858668
80.271657,96670.896025,62177.299128,-51481.617466
80.274232,-59956.681302,-592.164754,-95149.060852
80.276808,76389.253214,-7254.018232,-90092.830565
80.279383,-34493.596897,-7105.977043,-87488.105872
80.281958,16728.654289,12879.583391,-85496.257577
80.284533,-3404.947333,28571.949361,-89173.515967
80.287109,16432.571912,14359.995275,-80899.684589
80.289684,-19541.436869,-14656.077652,-89326.735067
80.292259,11547.212695,2516.700203,-84883.381178
80.294834,15544.324782,36122.049970,-78141.740796
80.297410,296.082377,1776.494261,-88867.077768
80.299985,-8882.471304,2368.659014,-79061.055394
80.302560,6069.688724,5181.441594,-82738.313784
80.305135,10807.006753,11251.130318,-77988.521696
80.307710,4737.318029,7846.182985,-83351.190182
80.310286,20873.807564,26647.413912,-73085.510509
80.312861,7846.182985,9770.718434,-77682.083497
80.315436,2368.659014,444.123565,-77835.302597
80.318011,-5033.400406,1184.329507,-81818.999186
80.320587,19541.436869,35085.761651,-75230.577904
80.323162,12583.501014,2220.617826,-82585.094684
80.325737,-10066.800811,-2812.782580,-84576.942979
80.328312,5477.523971,16284.530724,-78907.836294
80.330888,1036.288319,7994.224174,-90858.926063
80.333463,5477.523971,888.247130,-79367.493593
80.336038,1776.494261,-20577.725188,-79673.931792
80.338613,-12287.418637,296.082377,-66956.746525
80.341188,42339.779882,21762.054695,-79673.931792
80.343764,-5181.441594,25463.084405,-78448.178995
80.346339,13471.748144,-41155.450375,-79827.150892
80.348914,-21317.931130,2960.823768,-69561.471218
80.351489,-6957.935855,13767.830521,-78601.398095
80.354065,1776.494261,13323.706956,-78141.740796
80.356640,1776.494261,-18653.189738,-83351.190182
80.359215,-10658.965565,-12731.542202,-83351.190182
80.361790,-5921.647536,11399.171507,-80440.027290
80.364366,4441.235652,2072.576638,-76149.892501
80.366941,-4737.318029,3701.029710,-79367.493593
80.369516,-8734.430116,-2368.659014,-77988.521696
80.372091,-10214.842000,2516.700203,-71246.881314
80.374666,-6365.771101,-17616.901420,-83504.409282
80.377241,-1776.494261,9622.677246,-75537.016103
80.379816,5181.441594,10066.800811,-73545.167808
80.382391,-15100.201217,-14063.912898,-83810.847481
80.384965,10214.842000,-1776.494261,-81665.780087
80.387540,-16580.613101,12435.459826,-81512.560987
80.390115,4885.359217,11991.336260,-71246.881314
80.392690,-7846.182985,-31088.649564,-95915.156350
80.395264,0.000000,-2960.823768,-88254.201370
80.397839,12731.542202,37158.338288,-82278.656485
80.400414,10214.842000,31088.649564,-73851.606007
80.402989,-16432.571912,-10362.883188,-98826.319242
80.405563,14952.160028,-888.247130,-73851.606007
80.408138,13027.624579,37750.503042,-74311.263306
80.410713,-7105.977043,16728.654289,-80899.684589
80.413288,30200.402434,6661.853478,-74004.825107
80.415862,-37454.420665,-12731.542202,-88560.639569
80.418437,31088.649564,24130.713709,-71859.757712
80.421012,1924.535449,23982.672521,-80593.246390
80.423587,14063.912898,2072.576638,-75077.358804
80.426161,-18209.066173,1184.329507,-83810.847481
80.428736,24722.878463,14804.118840,-72625.853210
80.431311,888.247130,6513.812290,-76915.987999
80.433886,10955.047942,11695.253884,-80593.246390
80.436460,20281.642811,29312.155303,-74770.920605
80.439035,-3552.988522,2368.659014,-79980.369991
80.441610,-4293.194464,-1628.453072,-75690.235202
80.444185,26795.455100,30052.361245,-80746.465489
80.446759,5181.441594,13619.789333,-79520.712692
80.449334,-1628.453072,-1628.453072,-78294.959896
80.451909,6217.729913,17616.901420,-76762.768900
80.454484,-4145.153275,-4737.318029,-94076.527154
80.457058,23242.466579,12435.459826,-72319.415011
80.459633,-2664.741391,-25463.084405,-78754.617194
80.462208,2516.700203,6069.688724,-62206.954438
80.464783,7846.182985,-5773.606348,-83810.847481
80.467358,28275.866984,42783.903448,-70174.347617
80.469933,4441.235652,-47669.262665,-85649.476676
80.472508,6069.688724,10658.965565,-66956.746525
80.475083,-20725.766376,11547.212695,-80286.808190
80.477658,20133.601622,15692.365970,-69867.909418
80.480233,-3552.988522,-13915.871710,-76609.549800
80.482808,-4145.153275,-23390.507767,-87947.763170
80.485383,-5625.565159,21614.013506,-79367.493593
80.487958,1332.370696,-11251.130318,-86875.229473
80.490533,-10807.006753,6661.853478,-81359.341888
80.493108,-9918.759623,-12879.583391,-85189.819378
80.495683,-10807.006753,7105.977043,-71400.100414
80.498258,-3997.112087,-15692.365970,-83351.190182
80.500833,5181.441594,6957.935855,-80593.246390
80.503408,1628.453072,1332.370696,-82891.532884
80.505983,-3108.864956,-8290.306550,-78907.836294
80.508558,26795.455100,6957.935855,-72166.195912
80.511133,-16136.489536,3552.988522,-80899.684589
80.513708,28423.908173,11695.253884,-65730.993728
80.516282,-39675.038491,-27387.619854,-89939.611465
80.518857,62029.257940,42635.862259,-53013.808462
80.521432,-56995.857534,-2220.617826,-93310.431656
80.524007,89268.836605,48409.468607,-46885.044478
80.526582,-62621.422693,-19393.395680,-92850.774358
80.529157,28719.990550,740.205942,-68795.375720
80.531732,6069.688724,37602.461854,-74004.825107
80.534307,21910.095883,25611.125593,-74311.263306
80.536882,2368.659014,-5625.565159,-75077.358804
80.539457,-4885.359217,-5033.400406,-77222.426198
80.542032,27535.661042,32421.020260,-68335.718422
80.544607,-1332.370696,6661.853478,-84730.162079
80.547182,14063.912898,5329.482782,-69561.471218
80.549757,-12435.459826,1480.411884,-82125.437386
80.552332,17912.983796,14359.995275,-74617.701505
80.554907,6957.935855,8142.265362,-82431.875585
80.557482,16580.613101,17912.983796,-76762.768900
80.560057,1184.329507,15100.201217,-78141.740796
80.562631,4145.153275,5773.606348,-77222.426198
80.565206,-3701.029710,13175.665768,-78754.617194
80.567780,24870.919651,29016.072926,-72779.072310
80.570354,-4589.276840,3701.029710,-74770.920605
80.572929,-3108.864956,6069.688724,-77069.207099
80.575503,-8734.430116,-2664.741391,-81665.780087
80.578078,58032.145853,40563.285622,-60368.325242
80.580652,-82310.900750,-63361.628635,-109091.998915
80.583226,48261.427418,19541.436869,-65577.774629
80.585801,-87492.342344,-4589.276840,-98826.319242
80.588375,52702.663070,29904.320057,-64964.898230
80.590950,-23390.507767,6513.812290,-75537.016103
80.593524,4885.359217,-31976.896694,-74158.044206
80.596098,-44708.438897,10510.924376,-80899.684589
80.598673,3404.947333,2516.700203,-86262.353075
80.601247,-6069.688724,8734.430116,-81665.780087
80.603822,-7105.977043,-27831.743419,-95149.060852
80.606396,-10066.800811,17172.777854,-74770.920605
80.608970,-11251.130318,1332.370696,-82738.313784
80.611545,4885.359217,4441.235652,-74004.825107
80.614119,-4589.276840,-5181.441594,-80746.465489
80.616694,-11103.089130,3404.947333,-73391.948708
80.619268,-5477.523971,-6217.729913,-79214.274493
80.621842,6809.894666,-4293.194464,-83044.751983
80.624417,1332.370696,10658.965565,-76609.549800
80.626991,-4885.359217,-10066.800811,-77375.645298
80.629566,-148.041188,-296.082377,-74617.701505
80.632140,-5181.441594,10362.883188,-79520.712692
80.634714,-7698.141797,7550.100608,-72625.853210
80.637289,3552.988522,-23686.590144,-93923.308055
80.639863,10214.842000,5921.647536,-84270.504780
80.642438,-14804.118840,27239.578666,-89326.735067
80.645012,29460.196492,37158.338288,-68642.156621
80.647586,-40415.244433,-14211.954086,-96528.032748
80.650161,-3849.070898,148.041188,-81818.999186
80.652735,12731.542202,32717.102636,-83044.751983
80.655310,-8586.388927,18209.066173,-89173.515967
80.657884,39082.873738,9770.718434,-76456.330700
80.660458,-34493.596897,-9326.594869,-84117.285680
80.663033,28127.825796,19985.560434,-72779.072310
80.665606,1924.535449,15840.407159,-85036.600278
80.668180,6513.812290,4293.194464,-76456.330700
80.670754,-13175.665768,5329.482782,-80746.465489
80.673327,17468.860231,9474.636058,-77835.302597
80.675901,11103.089130,16580.613101,-76149.892501
80.678474,10214.842000,8438.347739,-82431.875585
80.681048,6217.729913,14804.118840,-73545.167808
80.683621,-1480.411884,1924.535449,-78907.836294
80.686195,2960.823768,15396.283594,-78907.836294
80.688769,23094.425390,21317.931130,-79367.493593
80.691342,-8734.430116,4441.235652,-78294.959896
80.693916,4441.235652,12731.542202,-70940.443115
80.696489,-16728.654289,2812.782580,-79980.369991
80.699063,43079.985824,32569.061448,-68335.718422
80.701636,-83791.312634,-64101.834577,-111237.066310
80.704210,39971.120868,23242.466579,-60215.106143
80.706784,-81718.735997,-5625.565159,-97753.785545
80.709357,45300.603650,33309.267390,-59602.229744
80.711931,-34789.679274,-18949.272115,-82891.532884
80.714504,9622.677246,-21465.972318,-72625.853210
80.717078,-33901.432144,10955.047942,-78448.178995
80.719651,2368.659014,1776.494261,-86109.133975
80.722225,-3552.988522,6809.894666,-75230.577904
80.724799,-10066.800811,-28719.990550,-89786.392366
80.727372,-9622.677246,25018.960840,-66956.746525
80.729946,-2368.659014,-6957.935855,-82125.437386
80.732519,-2664.741391,5921.647536,-74770.920605
80.735093,-13323.706956,-11991.336260,-89020.296868
80.737666,-13471.748144,444.123565,-77528.864398
80.740240,-7105.977043,-1776.494261,-78141.740796
80.742814,4589.276840,7550.100608,-79980.369991
80.745387,-13027.624579,1628.453072,-74617.701505
80.747961,-14063.912898,-14804.118840,-75843.454302
80.750534,9622.677246,10362.883188,-75077.358804
80.753108,-12583.501014,3108.864956,-82738.313784
80.755681,24870.919651,5329.482782,-66803.527426
80.758255,-33013.185013,-21762.054695,-85343.038477
80.760829,60548.846056,38934.832549,-56384.628653
80.763402,-51370.292375,-7846.182985,-97140.909146
80.765976,75797.088461,18653.189738,-61747.297139
80.768510,-30200.402434,-9326.594869,-85036.600278
80.771044,28719.990550,4737.318029,-69867.909418
80.773578,14656.077652,34937.720462,-75537.016103
80.776112,7846.182985,22354.219448,-74924.139704
80.778647,3552.988522,-7698.141797,-76609.549800
80.781181,-10807.006753,-3701.029710,-80593.246390
80.783715,19097.313304,29016.072926,-73238.729609
80.786249,14656.077652,1480.411884,-82738.313784
80.788783,6513.812290,6365.771101,-70174.347617
80.791318,-148.041188,5773.606348,-80440.027290
80.793852,15692.365970,19837.519246,-74464.482406
80.796386,14063.912898,8882.471304,-80593.246390
80.798920,9918.759623,18209.066173,-74158.044206
80.801454,-2368.659014,7994.224174,-76915.987999
80.803988,3701.029710,3701.029710,-80286.808190
80.806523,19837.519246,28571.949361,-76303.111601
80.809057,-6069.688724,-6661.853478,-84117.285680
80.811591,-592.164754,16876.695478,-75537.016103
80.814125,-4589.276840,10362.883188,-82738.313784
80.816659,31236.690752,20725.766376,-77835.302597
80.819194,-35974.008781,-38046.585419,-89786.392366
80.821728,33605.349767,296.082377,-64658.460031
80.824262,-51518.333563,-4145.153275,-85649.476676
80.826796,47373.180288,24278.754898,-69101.813920
80.829330,-22206.178260,5033.400406,-73851.606007
80.831865,3701.029710,-33753.390955,-75230.577904
80.834399,-23982.672521,14063.912898,-75383.797003
80.836933,-2516.700203,-148.041188,-87334.886772
80.839467,8290.306550,12879.583391,-75996.673402
80.842001,5033.400406,-19245.354492,-84576.942979
80.844535,-7402.059420,1628.453072,-77375.645298
80.847070,-2812.782580,-2072.576638,-83197.971083
80.849604,-2072.576638,3552.988522,-79673.931792
80.852138,-7994.224174,-8882.471304,-86568.791274
80.854672,-19689.478057,-4441.235652,-78754.617194
80.857206,-3701.029710,4293.194464,-74770.920605
80.859741,-1776.494261,-6513.812290,-84270.504780
80.862275,-4737.318029,3108.864956,-74924.139704
80.864809,-7698.141797,-12583.501014,-77682.083497
80.867343,740.205942,11251.130318,-76915.987999
80.869885,1480.411884,2516.700203,-80746.465489
80.872426,1184.329507,-15544.324782,-83657.628382
80.874968,-26943.496289,-21021.848753,-92084.678860
80.877510,67506.781910,56107.610404,-64658.460031
80.880051,-33901.432144,-2664.741391,-88254.201370
80.882593,36862.255912,3849.070898,-77835.302597
80.885135,-20281.642811,-1184.329507,-87488.105872
80.887676,28127.825796,6069.688724,-77988.521696
80.890218,-11547.212695,17024.736666,-88867.077768
80.892759,35085.761651,16728.654289,-74004.825107
80.895301,-37306.379477,-11843.295072,-88560.639569
80.897843,24574.837274,10066.800811,-76456.330700
80.900384,-296.082377,28127.825796,-82891.532884
80.902926,9474.636058,-592.164754,-83351.190182
80.905468,-2812.782580,4737.318029,-78754.617194
80.908009,5773.606348,6365.771101,-84576.942979
80.910551,25315.043216,25463.084405,-73085.510509
80.913092,8290.306550,3108.864956,-82431.875585
80.915634,4589.276840,12731.542202,-74464.482406
80.918176,1184.329507,2368.659014,-81206.122788
80.920717,25907.207970,28275.866984,-74770.920605
80.923259,10214.842000,3849.070898,-80746.465489
80.925801,7402.059420,888.247130,-74770.920605
80.928342,12731.542202,24574.837274,-68335.718422
80.930884,0.000000,-10658.965565,-94076.527154
80.933426,28275.866984,16136.489536,-68488.937521
80.935967,-17320.819043,-25611.125593,-80746.465489
80.938509,12139.377449,14211.954086,-58836.134246
80.941050,-14952.160028,-13915.871710,-85036.600278
80.943592,26647.413912,38490.708984,-64505.240932
80.946134,-15396.283594,-51370.292375,-102810.015832
80.948675,14063.912898,-1036.288319,-75690.235202
80.951217,-24426.796086,3108.864956,-83044.751983
80.953759,12287.418637,13027.624579,-76303.111601
80.956300,2220.617826,-2812.782580,-75996.673402
80.958842,-6365.771101,-17912.983796,-80133.589091
80.961383,-7994.224174,19245.354492,-68948.594820
80.963925,4589.276840,-9622.677246,-84423.723880
80.966467,1184.329507,12435.459826,-74158.044206
80.969008,-22946.384202,-22206.178260,-86568.791274
80.971519,-5625.565159,6513.812290,-73238.729609
80.974029,-3552.988522,-4737.318029,-82278.656485
80.976539,-1776.494261,7105.977043,-72625.853210
80.979049,-16728.654289,-20873.807564,-79673.931792
80.981560,15100.201217,13915.871710,-74924.139704
80.984070,-23982.672521,3552.988522,-81052.903688
80.986580,27683.702231,-1036.288319,-66803.527426
80.989091,-30200.402434,-14804.118840,-79520.712692
80.991601,94894.401764,62325.340316,-54699.218557
80.994111,-61437.093186,-15692.365970,-95149.060852
80.996621,79794.200548,18505.148550,-57610.381450
80.999132,-35381.844028,-3108.864956,-86722.010374
81.001642,35974.008781,1184.329507,-70940.443115
81.004152,12435.459826,33457.308578,-73238.729609
81.006662,17320.819043,20429.683999,-75077.358804
81.009173,8290.306550,-5181.441594,-79827.150892
81.011683,-3404.947333,-1332.370696,-80286.808190
81.014193,13027.624579,31532.773129,-77222.426198
81.016704,8290.306550,3404.947333,-88560.639569
81.019214,1776.494261,5773.606348,-77988.521696
81.021724,-2368.659014,3108.864956,-82891.532884
81.024234,28868.031738,27683.702231,-70634.004916
81.026745,9770.718434,9030.512492,-83504.409282
81.029255,11251.130318,10510.924376,-75690.235202
81.031765,-5181.441594,2368.659014,-78448.178995
81.034276,35233.802839,35381.844028,-73085.510509
81.036786,-1184.329507,-2664.741391,-82738.313784
81.039296,1776.494261,3701.029710,-77835.302597
81.041806,17172.777854,26795.455100,-72319.415011
81.044317,-15544.324782,-14063.912898,-95149.060852
81.046827,45744.727216,24426.796086,-64505.240932
81.049337,-36270.091158,-41599.573940,-97294.128246
81.051847,25018.960840,20281.642811,-64198.802732
81.054358,18061.024985,-9326.594869,-79827.150892
81.056868,15248.242405,36714.214723,-74617.701505
81.059378,-1184.329507,-53886.992578,-102963.234931
81.061889,3997.112087,3701.029710,-72012.976812
81.064399,-28571.949361,5773.606348,-79214.274493
81.066909,9178.553681,9326.594869,-80133.589091
81.069419,4589.276840,296.082377,-78754.617194
81.071942,-6957.935855,-20577.725188,-84117.285680
81.074465,-7698.141797,14952.160028,-78754.617194
81.076988,1480.411884,-3404.947333,-82585.094684
81.079512,-1332.370696,296.082377,-76915.987999
81.082035,-11399.171507,-11843.295072,-78294.959896
81.084558,-6513.812290,3404.947333,-72319.415011
81.087081,1480.411884,-11991.336260,-85802.695776
81.089604,-1332.370696,4293.194464,-80133.589091
81.092128,-1924.535449,-10066.800811,-79367.493593
81.094651,-10362.883188,5329.482782,-80899.684589
81.097174,-12583.501014,1628.453072,-80440.027290
81.099697,19393.395680,-13915.871710,-85802.695776
81.102220,-27387.619854,-14508.036463,-88867.077768
81.104744,86159.971649,53442.869012,-55771.752254
81.107267,-49149.674549,-13767.830521,-90092.830565
81.109790,44264.315332,5181.441594,-79520.712692
81.112313,-15100.201217,8290.306550,-86568.791274
81.114836,18061.024985,22502.260637,-79367.493593
81.117360,-9326.594869,19541.436869,-89173.515967
81.119883,38934.832549,18653.189738,-76456.330700
81.122406,-30496.484810,-10214.842000,-86568.791274
81.124929,24426.796086,5773.606348,-74924.139704
81.127453,8586.388927,26647.413912,-80593.246390
81.129976,8290.306550,296.082377,-87028.448573
81.132499,4293.194464,8142.265362,-77069.207099
81.135022,4885.359217,8142.265362,-76149.892501
81.137545,21021.848753,22206.178260,-75537.016103
81.140069,8142.265362,4293.194464,-82431.875585
81.142592,-2812.782580,11251.130318,-74617.701505
81.145115,-444.123565,9622.677246,-80746.465489
81.147638,24722.878463,22650.301825,-79367.493593
81.150161,-7550.100608,-3256.906145,-88407.420469
81.152685,8882.471304,18653.189738,-74004.825107
81.155208,-13323.706956,14211.954086,-76303.111601
81.157731,63065.546258,40119.162056,-62053.735338
81.160254,-88972.754228,-66026.370026,-112309.600007
81.162777,39526.997303,24278.754898,-63892.364533
81.165301,-81126.571243,3404.947333,-96987.690047
81.167824,38490.708984,24870.919651,-65884.212828
81.170347,-27387.619854,-7846.182985,-77682.083497
81.172881,8586.388927,-25315.043216,-73698.386908
81.175415,-29164.114115,11103.089130,-79980.369991
81.177948,8438.347739,592.164754,-78141.740796
81.180482,1628.453072,9178.553681,-72166.195912
81.183016,-12139.377449,-24722.878463,-91012.145162
81.185550,-5181.441594,21021.848753,-74158.044206
81.188084,-11547.212695,-7994.224174,-86262.353075
81.190617,7105.977043,6957.935855,-74158.044206
81.193151,-12731.542202,-10955.047942,-85802.695776
81.195685,-9622.677246,-740.205942,-76609.549800
81.198219,-2220.617826,-8438.347739,-81052.903688
81.200752,-3701.029710,-8882.471304,-86109.133975
81.203286,2516.700203,-592.164754,-79520.712692
81.205820,-4589.276840,3256.906145,-84270.504780
81.208354,-13767.830521,3256.906145,-77069.207099
81.210888,22058.137072,-9326.594869,-75077.358804
81.213421,-33605.349767,-18209.066173,-85802.695776
81.215955,109106.355851,70023.482113,-42135.252390
81.218489,-45892.768404,-8734.430116,-94229.746254
81.221023,38934.832549,3552.988522,-82891.532884
81.223557,-14508.036463,5329.482782,-87488.105872
81.226090,37158.338288,11547.212695,-72012.976812
81.228624,-2072.576638,23390.507767,-83197.971083
81.231158,28275.866984,26795.455100,-74464.482406
81.233692,-18653.189738,-8438.347739,-86722.010374
81.236226,15692.365970,-1036.288319,-80286.808190
81.238759,10510.924376,25315.043216,-81818.999186
81.241293,6957.935855,148.041188,-81972.218286
81.243827,8142.265362,12287.418637,-74158.044206
81.246361,5329.482782,5773.606348,-83657.628382
81.248894,28275.866984,29460.196492,-71553.319513
81.251428,6069.688724,3256.906145,-84730.162079
81.253962,2072.576638,5181.441594,-76303.111601
81.256496,6365.771101,17912.983796,-77069.207099
81.259030,5625.565159,11843.295072,-81512.560987
81.261563,-3849.070898,-148.041188,-81665.780087
81.264097,18061.024985,26203.290347,-70480.785816
81.266631,-25315.043216,-1184.329507,-86415.572174
81.269165,50482.045244,30940.608376,-64352.021832
81.271699,-78017.706287,-60252.763679,-110470.970812
81.274241,24426.796086,17616.901420,-62819.830836
81.276784,-36862.255912,-3701.029710,-85036.600278
81.279327,29756.278868,30052.361245,-62513.392637
81.281870,-20577.725188,-43820.191766,-96987.690047
81.284413,-1480.411884,1924.535449,-69867.909418
81.286956,-30200.402434,5921.647536,-78754.617194
81.289498,14952.160028,9326.594869,-75077.358804
81.292041,3108.864956,-4589.276840,-78754.617194
81.294584,-5625.565159,-14063.912898,-84270.504780
81.297127,-5329.482782,18801.230927,-73238.729609
81.299670,-3997.112087,-9178.553681,-83504.409282
81.302213,1628.453072,6809.894666,-75537.016103
81.304756,-12731.542202,-9770.718434,-78601.398095
81.307298,-9474.636058,9918.759623,-72625.853210
81.309841,-6513.812290,-10807.006753,-82585.094684
81.312384,-3849.070898,-2516.700203,-75843.454302
81.314927,12435.459826,7105.977043,-75383.797003
81.317470,-17172.777854,0.000000,-82738.313784
81.320013,-2664.741391,888.247130,-72166.195912
81.322555,-6661.853478,-14656.077652,-88100.982270
81.325098,80978.530055,56107.610404,-55618.533155
81.327641,-70467.605678,-13619.789333,-103116.454031
81.330184,95930.690083,36862.255912,-44893.196183
81.332727,-58032.145853,-13619.789333,-88407.420469
81.335270,24130.713709,6809.894666,-72166.195912
81.337812,25463.084405,40119.162056,-69714.690318
81.340355,-6809.894666,4885.359217,-79673.931792
81.342898,29460.196492,3552.988522,-73238.729609
81.345441,-25315.043216,1036.288319,-82125.437386
81.347984,15544.324782,28127.825796,-71093.662214
81.350527,-3701.029710,-2220.617826,-88713.858668
81.353070,13915.871710,12287.418637,-75230.577904
81.355612,-6069.688724,3701.029710,-84423.723880
81.358155,29756.278868,25907.207970,-71400.100414
81.360698,11843.295072,10066.800811,-81818.999186
81.363241,-592.164754,2664.741391,-81052.903688
81.365784,12287.418637,25463.084405,-71246.881314
81.368327,10807.006753,8586.388927,-80286.808190
81.370869,-3849.070898,-1184.329507,-81972.218286
81.373412,17024.736666,21614.013506,-74004.825107
81.375926,-15396.283594,6069.688724,-81359.341888
81.378440,54035.033766,35529.885216,-60827.982541
81.380954,-84827.600953,-68543.070229,-107253.369720
81.383468,44708.438897,18653.189738,-62666.611736
81.385982,-76685.335591,1332.370696,-99592.414740
81.388496,30348.443622,27091.537477,-60521.544342
81.391010,-32272.979071,-32569.061448,-87641.324971
81.393523,8438.347739,-6513.812290,-73085.510509
81.396037,-39526.997303,7402.059420,-83044.751983
81.398551,7994.224174,1184.329507,-80746.465489
81.401065,888.247130,9770.718434,-74004.825107
81.403579,-5921.647536,-23538.548956,-90705.706963
81.406093,-1628.453072,20577.725188,-70940.443115
81.408607,-5625.565159,-13619.789333,-87028.448573
81.411121,5033.400406,10658.965565,-76149.892501
81.413635,-14211.954086,-13915.871710,-82738.313784
81.416149,-10510.924376,5033.400406,-68029.280222
81.418662,-6661.853478,-5329.482782,-79520.712692
81.421176,-7846.182985,-7994.224174,-84730.162079
81.423690,15840.407159,14508.036463,-75383.797003
81.426204,-22650.301825,-3552.988522,-83044.751983
81.428718,2368.659014,2516.700203,-71553.319513
81.431232,-28127.825796,-14211.954086,-88867.077768
81.433746,51962.457128,38342.667796,-66956.746525
81.436260,-53738.951389,2072.576638,-103882.549529
81.438774,73872.553012,43079.985824,-57303.943250
81.441287,-58624.310606,-16136.489536,-91165.364262
81.443801,21910.095883,4441.235652,-74004.825107
81.446315,18801.230927,41451.532752,-73851.606007
81.448829,10955.047942,12731.542202,-74004.825107
81.451343,4885.359217,-3997.112087,-76609.549800
81.453857,-14063.912898,-148.041188,-81206.122788
81.456371,21169.889941,26351.331535,-71553.319513
81.458885,888.247130,3849.070898,-84270.504780
81.461399,7402.059420,9030.512492,-71093.662214
81.463913,-7698.141797,3256.906145,-81206.122788
81.466426,26499.372724,23834.631332,-71246.881314
81.468940,10807.006753,16728.654289,-83810.847481
81.471454,2812.782580,7254.018232,-78448.178995
81.473968,15840.407159,25907.207970,-75843.454302
81.476495,10807.006753,5625.565159,-82278.656485
81.479022,-3701.029710,4589.276840,-79673.931792
81.481549,22058.137072,25167.002028,-70634.004916
81.484076,-29904.320057,-5921.647536,-87181.667672
81.486603,55811.528027,43376.068201,-58989.353346
81.489130,-93710.072257,-62917.505070,-112309.600007
81.491657,22502.260637,11695.253884,-61900.516238
81.494183,-21614.013506,-3997.112087,-83044.751983
81.496710,31236.690752,31236.690752,-60981.201641
81.499237,-21169.889941,-44856.480085,-96221.594549
81.501764,11843.295072,3701.029710,-70021.128517
81.504291,-43672.150578,6069.688724,-77988.521696
81.506818,14063.912898,2220.617826,-76609.549800
81.509345,2812.782580,9622.677246,-73085.510509
81.511872,-6957.935855,-12139.377449,-82125.437386
81.514399,-2812.782580,18801.230927,-71859.757712
81.516926,-444.123565,-8290.306550,-83197.971083
81.519452,-8882.471304,592.164754,-78448.178995
81.521979,-20281.642811,-16284.530724,-84883.381178
81.524506,-6365.771101,7254.018232,-71553.319513
81.527033,-9178.553681,-7402.059420,-81818.999186
81.529560,-1332.370696,-12287.418637,-84423.723880
81.532087,-5181.441594,8586.388927,-81818.999186
81.534614,-14656.077652,-5773.606348,-77069.207099
81.537141,14211.954086,-8734.430116,-75537.016103
81.539668,-27831.743419,-30052.361245,-91318.583362
81.542195,104072.955445,74168.635388,-45046.415282
81.544722,-47965.345042,-22058.137072,-92084.678860
81.547248,60252.763679,11399.171507,-62666.611736
81.549775,-29904.320057,740.205942,-83351.190182
81.552302,26647.413912,21762.054695,-80593.246390
81.554829,-1184.329507,21762.054695,-91931.459760
81.557356,34197.514520,20873.807564,-75383.797003
81.559883,-20725.766376,-9178.553681,-87181.667672
81.562410,12435.459826,4293.194464,-81206.122788
81.564937,12287.418637,31236.690752,-74464.482406
81.567464,-4441.235652,-6809.894666,-87028.448573
81.569991,16432.571912,13915.871710,-73545.167808
81.572518,11695.253884,12879.583391,-79367.493593
81.575044,26203.290347,24870.919651,-70787.224015
81.577583,3256.906145,-2220.617826,-83504.409282
81.580121,13915.871710,21317.931130,-72779.072310
81.582659,6661.853478,14508.036463,-77375.645298
81.585197,4885.359217,-2368.659014,-81052.903688
81.587735,6661.853478,22946.384202,-73085.510509
81.590273,2960.823768,7254.018232,-78907.836294
81.592812,32717.102636,28719.990550,-58989.353346
81.595350,-87344.301156,-67654.823099,-111083.847210
81.597888,47669.262665,31532.773129,-58376.476948
81.600426,-81718.735997,-7846.182985,-97447.347346
81.602964,47817.303853,23242.466579,-65271.336430
81.605502,-35381.844028,-4737.318029,-83657.628382
81.608040,5477.523971,-24426.796086,-76456.330700
81.610579,-31680.814318,2220.617826,-81818.999186
81.613117,-4293.194464,-2664.741391,-85802.695776
81.615655,740.205942,13767.830521,-74311.263306
81.618193,-5033.400406,-24722.878463,-87947.763170
81.620731,444.123565,21762.054695,-69101.813920
81.623269,-8142.265362,-11547.212695,-85802.695776
81.625808,740.205942,7254.018232,-74311.263306
81.628346,-13323.706956,-14211.954086,-83504.409282
81.630884,-6513.812290,-3997.112087,-75537.016103
81.633422,-10066.800811,-1776.494261,-80286.808190
81.635960,21465.972318,5921.647536,-74924.139704
81.638498,-12879.583391,3256.906145,-81052.903688
81.641037,-11695.253884,-6069.688724,-79673.931792
81.643575,5921.647536,-4293.194464,-75077.358804
81.646113,-27091.537477,-20577.725188,-87947.763170
81.648651,104813.161387,71799.976374,-45046.415282
81.651189,-56255.651592,-22206.178260,-93463.650756
81.653727,77129.459156,16876.695478,-53779.903960
81.656265,-11103.089130,6217.729913,-82431.875585
81.658804,22946.384202,11399.171507,-74311.263306
81.661342,15248.242405,24870.919651,-81052.903688
81.663880,29756.278868,20281.642811,-73698.386908
81.666418,-18061.024985,-5477.523971,-83657.628382
81.668956,10066.800811,-148.041188,-81665.780087
81.671494,12287.418637,29016.072926,-75690.235202
81.674033,-4441.235652,-3849.070898,-87334.886772
81.676571,-148.041188,11547.212695,-78448.178995
81.679118,11103.089130,13619.789333,-82431.875585
81.681666,15988.448347,23982.672521,-75690.235202
81.684214,-148.041188,-3849.070898,-86415.572174
81.686761,24870.919651,35085.761651,-68642.156621
81.689309,-5181.441594,-5477.523971,-78907.836294
81.691856,-592.164754,5625.565159,-77222.426198
81.694404,34345.555709,30348.443622,-72625.853210
81.696951,-25611.125593,-17320.819043,-94076.527154
81.699499,19985.560434,14508.036463,-67416.403824
81.702047,-23686.590144,-22354.219448,-80440.027290
81.704594,20429.683999,12139.377449,-62513.392637
81.707142,740.205942,-8438.347739,-83044.751983
81.709689,30348.443622,31976.896694,-64198.802732
81.712237,-17172.777854,-45152.562462,-96374.813648
81.714785,10658.965565,1332.370696,-69561.471218
81.717332,-31976.896694,2812.782580,-79520.712692
81.719880,22502.260637,12139.377449,-73851.606007
81.722427,-4293.194464,-11399.171507,-79520.712692
81.724975,-3108.864956,-5477.523971,-79980.369991
81.727523,-8586.388927,12583.501014,-77988.521696
81.730070,-2072.576638,-8586.388927,-82891.532884
81.732618,-6661.853478,-3256.906145,-77682.083497
81.735165,-20725.766376,-16728.654289,-85496.257577
81.737713,-9326.594869,10510.924376,-74617.701505
81.740261,6661.853478,-10214.842000,-79827.150892
81.742808,10214.842000,9474.636058,-76915.987999
81.745356,-11843.295072,444.123565,-79367.493593
81.747903,-10066.800811,-444.123565,-70327.566716
81.750451,-17468.860231,-9030.512492,-86568.791274
81.752999,39823.079680,31828.855506,-71553.319513
81.755546,-41599.573940,9326.594869,-98366.661943
81.758094,64545.958142,37898.544230,-58376.476948
81.760641,-42931.944636,-6365.771101,-82585.094684
81.763189,32717.102636,7994.224174,-68029.280222
81.765737,25167.002028,33161.226202,-70174.347617
81.768284,17468.860231,15248.242405,-74004.825107
81.770832,2516.700203,1628.453072,-73851.606007
81.773379,-15396.283594,-2960.823768,-79061.055394
81.775927,18801.230927,25315.043216,-71706.538613
81.778475,148.041188,3256.906145,-82431.875585
81.781022,20577.725188,11843.295072,-73698.386908
81.783570,-2516.700203,7550.100608,-85802.695776
81.786117,22650.301825,26203.290347,-74617.701505
81.788665,8142.265362,5329.482782,-81052.903688
81.791213,13915.871710,16876.695478,-78907.836294
81.793760,-7105.977043,10510.924376,-82738.313784
81.796308,5921.647536,148.041188,-81972.218286
81.798855,7698.141797,25463.084405,-70787.224015
81.801410,-1776.494261,-11399.171507,-92237.897959
81.803964,49297.715737,37454.420665,-57610.381450
81.806519,-90305.124924,-62917.505070,-105261.521425
81.809073,46929.056723,19985.560434,-67109.965625
81.811628,-69579.358548,1628.453072,-100205.291138
81.814182,36566.173535,22206.178260,-66190.651027
81.816736,-31236.690752,-12435.459826,-79673.931792
81.819291,-3404.947333,-22502.260637,-76303.111601
81.821845,-33161.226202,6365.771101,-81359.341888
81.824400,5773.606348,-2368.659014,-78448.178995
81.826954,2812.782580,9178.553681,-73545.167808
81.829509,-6957.935855,-18653.189738,-87641.324971
81.832063,-444.123565,17764.942608,-71093.662214
81.834617,-10807.006753,-9770.718434,-80440.027290
81.837172,-1332.370696,-1924.535449,-75077.358804
81.839726,-17912.983796,-13915.871710,-82891.532884
81.842281,-5329.482782,8142.265362,-73085.510509
81.844835,-12583.501014,-10362.883188,-85496.257577
81.847390,17764.942608,11399.171507,-81052.903688
81.849944,-14804.118840,4589.276840,-80133.589091
81.852498,-19097.313304,-2368.659014,-71706.538613
81.855053,-13323.706956,-11547.212695,-86109.133975
81.857607,17468.860231,10658.965565,-82585.094684
81.860162,-15988.448347,21021.848753,-95149.060852
81.862716,35233.802839,30792.567187,-73851.606007
81.865271,-63065.546258,-17468.860231,-85343.038477
81.867825,32124.937883,13767.830521,-68642.156621
81.870379,17468.860231,35974.008781,-77835.302597
81.872934,8734.430116,14804.118840,-77375.645298
81.875488,10510.924376,-888.247130,-74004.825107
81.878043,-20281.642811,444.123565,-77835.302597
81.880597,20429.683999,21762.054695,-74004.825107
81.883157,4885.359217,7698.141797,-81665.780087
81.885717,18209.066173,11103.089130,-72166.195912
81.888277,-3108.864956,8142.265362,-85036.600278
81.890837,19245.354492,22946.384202,-76609.549800
81.893397,17024.736666,11843.295072,-79367.493593
81.895957,18801.230927,18505.148550,-76915.987999
81.898517,-7105.977043,4589.276840,-79214.274493
81.901077,11103.089130,2516.700203,-78448.178995
81.903637,8586.388927,29608.237680,-69101.813920
81.906197,-6069.688724,-20577.725188,-94536.184453
81.908757,40711.326810,30644.525999,-61747.297139
81.911317,-74316.676577,-45004.521274,-104801.864126
81.913877,32272.979071,17468.860231,-69714.690318
81.916437,-43524.109390,2812.782580,-91318.583362
81.918997,25018.960840,19393.395680,-63432.707234
81.921557,-28719.990550,-21762.054695,-84270.504780
81.924117,-3404.947333,-11103.089130,-78601.398095
81.926677,-32272.979071,5181.441594,-80440.027290
81.929237,14656.077652,1924.535449,-77375.645298
81.931797,3849.070898,4145.153275,-75690.235202
81.934357,-13471.748144,-12583.501014,-82891.532884
81.936917,-1776.494261,13323.706956,-71246.881314
81.939477,-1332.370696,-11251.130318,-82278.656485
81.942037,-8438.347739,-296.082377,-79367.493593
81.944597,-19837.519246,-15692.365970,-83504.409282
81.947157,-7846.182985,-740.205942,-77988.521696
81.949717,12583.501014,5181.441594,-81052.903688
81.952277,-2812.782580,7105.977043,-83504.409282
81.954837,-6809.894666,-1924.535449,-74464.482406
81.957397,-6365.771101,-10066.800811,-71400.100414
81.959957,-19837.519246,-14211.954086,-84576.942979
81.962517,84679.559765,62325.340316,-54852.437657
81.965077,-43079.985824,-13175.665768,-93616.869856
81.967637,77573.582722,18653.189738,-49949.426470
81.970197,-20281.642811,6957.935855,-83504.409282
81.972757,18061.024985,12287.418637,-71246.881314
81.975317,34937.720462,26647.413912,-76915.987999
81.977877,26203.290347,19245.354492,-76456.330700
81.980437,-17468.860231,-4885.359217,-84117.285680
81.982997,-1628.453072,6217.729913,-79827.150892
81.985562,11103.089130,23390.507767,-76303.111601
81.988126,-6957.935855,-2960.823768,-90705.706963
81.990691,5181.441594,11399.171507,-74311.263306
81.993255,11695.253884,14952.160028,-78601.398095
81.995820,25463.084405,23538.548956,-73391.948708
81.998384,1480.411884,4885.359217,-84576.942979
82.000949,21317.931130,26203.290347,-71400.100414
82.003513,-14359.995275,-9770.718434,-83657.628382
82.006078,-1184.329507,12731.542202,-77069.207099
82.008643,26943.496289,28275.866984,-73698.386908
82.011207,19245.354492,18209.066173,-76915.987999
82.013772,-56699.775157,-41007.409187,-88407.420469
82.016336,22354.219448,3997.112087,-65118.117330
82.018901,-55811.528027,4885.359217,-92697.555258
82.021465,45004.521274,7105.977043,-86568.791274
82.024030,-8438.347739,18801.230927,-78294.959896
82.026594,-11991.336260,-41007.409187,-82585.094684
82.029159,-8882.471304,-2516.700203,-75690.235202
82.031723,0.000000,5477.523971,-83044.751983
82.034288,3701.029710,8734.430116,-68335.718422
82.036853,-9326.594869,-17320.819043,-85649.476676
82.039417,1924.535449,16728.654289,-72472.634111
82.041982,-6957.935855,-3849.070898,-78294.959896
82.044546,-4589.276840,-7402.059420,-75843.454302
82.047111,-9326.594869,-17320.819043,-82738.313784
82.049675,-14952.160028,-1480.411884,-80593.246390
82.052240,3849.070898,296.082377,-76303.111601
82.054804,13767.830521,7994.224174,-85343.038477
82.057369,-9030.512492,8142.265362,-76303.111601
82.059933,-16876.695478,-11695.253884,-70021.128517
82.062498,-18061.024985,-7402.059420,-82738.313784
82.065063,41155.450375,39675.038491,-73391.948708
82.067627,-40267.203245,2368.659014,-101890.701234
82.070192,68543.070229,31384.731941,-59755.448844
82.072756,-72096.058751,-20725.766376,-81665.780087
82.075321,36714.214723,12583.501014,-65730.993728
82.077885,21465.972318,30052.361245,-72166.195912
82.080450,14508.036463,14656.077652,-75996.673402
82.083014,-6809.894666,592.164754,-74924.139704
82.085579,-19689.478057,-1184.329507,-79520.712692
82.088149,23242.466579,24426.796086,-72012.976812
82.090717,-7846.182985,-740.205942,-85649.476676
82.093286,14063.912898,12139.377449,-72166.195912
82.095854,1184.329507,12287.418637,-82431.875585
82.098422,23686.590144,28275.866984,-72472.634111
82.100990,-888.247130,6957.935855,-84117.285680
82.103559,592.164754,11695.253884,-77835.302597
82.106127,1628.453072,-296.082377,-76609.549800
82.108695,7846.182985,19541.436869,-70634.004916
82.111263,19393.395680,16580.613101,-78601.398095
82.113832,27683.702231,17468.860231,-76915.987999
82.116400,-104961.202576,-63805.752200,-101584.263035
82.118968,41007.409187,19837.519246,-68948.594820
82.121537,-73132.347070,10658.965565,-103422.892230
82.124105,36714.214723,12287.418637,-72166.195912
82.126673,-34197.514520,-3849.070898,-74004.825107
82.129241,-12139.377449,-23242.466579,-76149.892501
82.131810,-30348.443622,1036.288319,-90092.830565
82.134378,6809.894666,2220.617826,-88407.420469
82.136946,2072.576638,7846.182985,-73851.606007
82.139514,-12583.501014,-13619.789333,-88560.639569
82.142083,-2072.576638,16432.571912,-73238.729609
82.144651,-9474.636058,-11843.295072,-80286.808190
82.147219,-6513.812290,-4145.153275,-75537.016103
82.149787,-21614.013506,-12287.418637,-86875.229473
82.152356,-6069.688724,-5033.400406,-77375.645298
82.154924,7105.977043,7402.059420,-78754.617194
82.157492,3108.864956,7994.224174,-84576.942979
82.160061,-8290.306550,-8142.265362,-73085.510509
82.162629,-15396.283594,-18357.107362,-82891.532884
82.165197,-17764.942608,-10362.883188,-93616.869856
82.167765,87048.218779,62029.257940,-63585.926334
82.170334,-31828.855506,-13471.748144,-88713.858668
82.172902,39675.038491,-1184.329507,-73238.729609
82.175470,-27239.578666,6069.688724,-81052.903688
82.178038,35529.885216,16580.613101,-66037.431928
82.180607,9918.759623,19837.519246,-93310.431656
82.183175,26795.455100,15248.242405,-82431.875585
82.185743,-33309.267390,-4589.276840,-83504.409282
82.188311,14211.954086,10066.800811,-75996.673402
82.190882,148.041188,15988.448347,-86568.791274
82.193453,6957.935855,3552.988522,-83657.628382
82.196023,6809.894666,17468.860231,-74617.701505
82.198594,5625.565159,8734.430116,-83044.751983
82.201164,10066.800811,26647.413912,-78294.959896
82.203735,15840.407159,12435.459826,-75843.454302
82.206305,148.041188,-1036.288319,-72319.415011
82.208876,-14063.912898,-1036.288319,-79980.369991
82.211446,38046.585419,41747.615129,-66956.746525
82.214017,-8142.265362,-17172.777854,-94689.403553
82.216588,50630.086433,29904.320057,-59449.010645
82.219158,-77277.500345,-41303.491564,-92544.336158
82.221729,-7105.977043,10214.842000,-75230.577904
82.224299,20873.807564,-2812.782580,-84883.381178
82.226870,23390.507767,23094.425390,-65884.212828
82.229440,-17172.777854,-40119.162056,-87181.667672
82.232011,4293.194464,-2368.659014,-75077.358804
82.234581,-27239.578666,7105.977043,-80440.027290
82.237152,20281.642811,6957.935855,-74770.920605
82.239722,-4885.359217,-444.123565,-72932.291410
82.242293,-2220.617826,5033.400406,-80133.589091
82.244864,-1776.494261,6069.688724,-77835.302597
82.247434,-9474.636058,-11399.171507,-81052.903688
82.250005,-11991.336260,-8290.306550,-81972.218286
82.252575,-20281.642811,-10658.965565,-82125.437386
82.255146,-6513.812290,3108.864956,-74617.701505
82.257716,19097.313304,7550.100608,-80133.589091
82.260287,-16728.654289,1332.370696,-83964.066581
82.262857,-14804.118840,-10807.006753,-70634.004916
82.265428,-27239.578666,-7402.059420,-83197.971083
82.267999,81126.571243,67950.905476,-58376.476948
82.270569,-59956.681302,-18357.107362,-101737.482134
82.273140,92525.742750,30644.525999,-46425.387179
82.275710,-73280.388258,-10066.800811,-88713.858668
82.278281,39082.873738,15544.324782,-68182.499322
82.280851,13175.665768,34345.555709,-72625.853210
82.283422,4441.235652,14656.077652,-77222.426198
82.285992,-2072.576638,-444.123565,-76149.892501
82.288563,-1480.411884,-444.123565,-76609.549800
82.291133,26943.496289,27683.702231,-67416.403824
82.293706,-7402.059420,-2960.823768,-84423.723880
82.296278,13175.665768,14211.954086,-74004.825107
82.298851,-2368.659014,9918.759623,-83810.847481
82.301423,17912.983796,23834.631332,-76915.987999
82.303996,14952.160028,21317.931130,-81818.999186
82.306568,-8142.265362,-6661.853478,-78601.398095
82.309141,-4441.235652,3108.864956,-76762.768900
82.311713,21762.054695,29608.237680,-73545.167808
82.314286,7254.018232,-444.123565,-87181.667672
82.316858,52998.745447,31088.649564,-62819.830836
82.319431,-107477.902778,-59364.516548,-102963.234931
82.322003,38194.626607,20133.601622,-64045.583633
82.324576,-71059.770432,8734.430116,-96987.690047
82.327148,22354.219448,15988.448347,-64658.460031
82.329721,-30792.567187,-32865.143825,-90858.926063
82.332293,-6661.853478,-3404.947333,-80133.589091
82.334866,-30052.361245,8734.430116,-84117.285680
82.337438,14508.036463,3404.947333,-76303.111601
82.340011,-1036.288319,8734.430116,-68488.937521
82.342583,-11991.336260,-13767.830521,-79520.712692
82.345156,-1480.411884,8290.306550,-72319.415011
82.347728,-10510.924376,-10955.047942,-84117.285680
82.350300,-11547.212695,-6957.935855,-79520.712692
82.352873,-23094.425390,-16580.613101,-84270.504780
82.355445,-1776.494261,2664.741391,-77069.207099
82.358018,11695.253884,15988.448347,-83044.751983
82.360590,-12879.583391,1628.453072,-81665.780087
82.363163,-13175.665768,-10510.924376,-67263.184724
82.365735,-23538.548956,-9326.594869,-82891.532884
82.368308,28719.990550,69431.317360,-55465.314055
82.370880,-51222.251186,-21762.054695,-101431.043935
82.373453,86604.095214,29164.114115,-48876.892772
82.376025,-62029.257940,-9474.636058,-88713.858668
82.378598,37010.297100,17468.860231,-66650.308326
82.381170,14359.995275,34789.679274,-70940.443115
82.383743,17172.777854,14656.077652,-74311.263306
82.386315,7254.018232,2516.700203,-74311.263306
82.388888,-17320.819043,-888.247130,-79980.369991
82.391460,15988.448347,23390.507767,-71553.319513
82.394033,-4441.235652,-3256.906145,-87947.763170
82.396606,20133.601622,16432.571912,-72472.634111
82.399179,8438.347739,8882.471304,-80593.246390
82.401752,28571.949361,29312.155303,-71859.757712
82.404325,20281.642811,19837.519246,-77222.426198
82.406899,-5329.482782,-10955.047942,-79214.274493
82.409472,1036.288319,7254.018232,-75230.577904
82.412045,15988.448347,30940.608376,-77835.302597
82.414618,10066.800811,-7105.977043,-89633.173266
82.417191,22058.137072,9622.677246,-70327.566716
82.419764,-49445.756926,-27683.702231,-88407.420469
82.422338,12139.377449,12583.501014,-68488.937521
82.424911,-6957.935855,1036.288319,-82278.656485
82.427484,24130.713709,17468.860231,-65271.336430
82.430057,-19985.560434,-30200.402434,-88713.858668
82.432630,-3256.906145,4589.276840,-69255.033019
82.435204,-22650.301825,2516.700203,-73545.167808
82.437777,20577.725188,9326.594869,-68182.499322
82.440350,-5181.441594,-2072.576638,-75537.016103
82.442923,-4293.194464,-740.205942,-80133.589091
82.445496,-7550.100608,9918.759623,-73085.510509
82.448069,-12583.501014,-17764.942608,-79367.493593
82.450643,-8882.471304,-5625.565159,-78294.959896
82.453216,-13471.748144,-13915.871710,-80899.684589
82.455789,12583.501014,13915.871710,-72472.634111
82.458362,-1184.329507,4737.318029,-86722.010374
82.460935,-5329.482782,-6069.688724,-80133.589091
82.463509,-11251.130318,-17024.736666,-77375.645298
82.466082,-18505.148550,-8586.388927,-84730.162079
82.468655,88380.589475,67210.699534,-55771.752254
82.471228,-26795.455100,-20133.601622,-94076.527154
82.473801,-11103.089130,-12139.377449,-84423.723880
82.476375,-14211.954086,8734.430116,-80440.027290
82.478948,12731.542202,16136.489536,-78601.398095
82.481521,25611.125593,20281.642811,-84117.285680
82.484094,28868.031738,19541.436869,-76609.549800
82.486667,-26943.496289,-3552.988522,-82891.532884
82.489240,12879.583391,4737.318029,-77528.864398
82.491814,15248.242405,19245.354492,-74617.701505
82.494387,-1036.288319,-1184.329507,-84117.285680
82.496960,3997.112087,17764.942608,-77375.645298
82.499534,13323.706956,17172.777854,-80593.246390
82.502108,26795.455100,30052.361245,-76915.987999
82.504682,2072.576638,9178.553681,-79367.493593
82.507256,-9326.594869,-9918.759623,-78448.178995
82.509831,8586.388927,25018.960840,-72625.853210
82.512405,9326.594869,18061.024985,-82738.313784
82.514979,37306.379477,22650.301825,-76456.330700
82.517553,-97559.143156,-64397.916954,-98060.223744
82.520127,40563.285622,19245.354492,-55771.752254
82.522701,-42635.862259,9918.759623,-94382.965354
82.525275,28719.990550,23538.548956,-64352.021832
82.527849,-31532.773129,-24722.878463,-80593.246390
82.530423,-13767.830521,-16136.489536,-73698.386908
82.532997,-30792.567187,4145.153275,-86568.791274
82.535572,17468.860231,3552.988522,-87641.324971
82.538146,296.082377,10214.842000,-72779.072310
82.540720,148.041188,-6661.853478,-79061.055394
82.543294,3108.864956,12139.377449,-73085.510509
82.545868,-10362.883188,-15100.201217,-80746.465489
82.548442,-6661.853478,-3849.070898,-73851.606007
82.551016,-22798.343014,-17912.983796,-82431.875585
82.553590,8734.430116,5921.647536,-75077.358804
82.556164,19393.395680,18061.024985,-75843.454302
82.558739,-22798.343014,-18801.230927,-84423.723880
82.561313,-10955.047942,-15100.201217,-80286.808190
82.563887,-18357.107362,-11103.089130,-85189.819378
82.566461,92969.866315,71948.017562,-54545.999458
82.569035,-29756.278868,-25611.125593,-96528.032748
82.571609,52406.580694,6513.812290,-67722.842023
82.574183,-33161.226202,3108.864956,-84730.162079
82.576757,38490.708984,17616.901420,-67109.965625
82.579331,22354.219448,26351.331535,-74924.139704
82.581905,24870.919651,14952.160028,-78294.959896
82.584480,-23094.425390,-5625.565159,-85649.476676
82.587054,21021.848753,8882.471304,-79061.055394
82.589628,-444.123565,13915.871710,-84270.504780
82.592202,6217.729913,2220.617826,-84270.504780
82.594776,14508.036463,19985.560434,-72472.634111
82.597350,7994.224174,15248.242405,-80440.027290
82.599924,29756.278868,32124.937883,-75996.673402
82.602466,-10066.800811,-13175.665768,-87334.886772
82.605007,3256.906145,7402.059420,-72012.976812
82.607549,6957.935855,22798.343014,-75230.577904
82.610090,16284.530724,8142.265362,-82585.094684
82.612632,41599.573940,30348.443622,-65118.117330
82.615173,-97559.143156,-67062.658345,-105414.740525
82.617715,36566.173535,14211.954086,-65424.555529
82.620256,-78017.706287,4589.276840,-100511.729338
82.622797,36714.214723,18949.272115,-63739.145434
82.625339,-37750.503042,-22946.384202,-88254.201370
82.627880,-9474.636058,-15692.365970,-79367.493593
82.630422,-27683.702231,5181.441594,-85955.914876
82.632963,10214.842000,1184.329507,-86568.791274
82.635505,-1776.494261,12435.459826,-73391.948708
82.638046,-16432.571912,-20133.601622,-87794.544071
82.640588,-296.082377,10510.924376,-77069.207099
82.643129,-14656.077652,-16876.695478,-83197.971083
82.645671,-14063.912898,-4589.276840,-75230.577904
82.648212,-24278.754898,-17024.736666,-82585.094684
82.650754,19097.313304,16580.613101,-71553.319513
82.653295,-13767.830521,7550.100608,-84883.381178
82.655837,3552.988522,-10066.800811,-79980.369991
82.658378,-11251.130318,-17024.736666,-78601.398095
82.660920,-20873.807564,-9326.594869,-85649.476676
82.663461,98595.431474,57884.104664,-68335.718422
82.666003,-12731.542202,-4885.359217,-87181.667672
82.668544,7550.100608,-8438.347739,-82891.532884
82.671086,-17764.942608,7254.018232,-82585.094684
82.673627,18653.189738,18949.272115,-78448.178995
82.676169,25611.125593,21762.054695,-84730.162079
82.678710,24278.754898,15544.324782,-79673.931792
82.681252,-12879.583391,-1184.329507,-79520.712692
82.683793,18061.024985,3997.112087,-75996.673402
82.686335,4145.153275,8142.265362,-83657.628382
82.688876,9918.759623,6957.935855,-79520.712692
82.691417,14656.077652,21614.013506,-72472.634111
82.693959,20429.683999,16728.654289,-77682.083497
82.696500,30052.361245,34493.596897,-73545.167808
82.699042,888.247130,-14952.160028,-84730.162079
82.701583,-3997.112087,592.164754,-75383.797003
82.704132,19689.478057,32124.937883,-73851.606007
82.706681,19837.519246,-148.041188,-87181.667672
82.709230,17468.860231,4145.153275,-70634.004916
82.711779,-39082.873738,-31680.814318,-86722.010374
82.714328,7846.182985,14063.912898,-68182.499322
82.716877,-5773.606348,-888.247130,-82125.437386
82.719426,31384.731941,24426.796086,-58989.353346
82.721974,-21910.095883,-35381.844028,-88867.077768
82.724523,-10214.842000,-11695.253884,-79520.712692
82.727072,-22206.178260,-296.082377,-78754.617194
82.729621,23686.590144,10807.006753,-71859.757712
82.732170,-16284.530724,-1628.453072,-77222.426198
82.734719,1480.411884,-4885.359217,-79061.055394
82.737268,-5181.441594,6069.688724,-77375.645298
82.739816,-13027.624579,-16876.695478,-86568.791274
82.742365,-16284.530724,-6513.812290,-80593.246390
82.744914,-16580.613101,-15840.407159,-83657.628382
82.747463,27387.619854,28719.990550,-71706.538613
82.750012,-26203.290347,-9030.512492,-85343.038477
82.752561,11547.212695,-9918.759623,-67876.061123
82.755110,-38786.791361,-7698.141797,-82738.313784
82.757659,56403.692780,38638.750172,-66650.308326
82.760207,-37158.338288,11251.130318,-95761.937250
82.762756,68691.111418,24278.754898,-63585.926334
82.765305,-67062.658345,-16284.530724,-94536.184453
82.767854,44264.315332,16728.654289,-66956.746525
82.770403,11251.130318,36566.173535,-73698.386908
82.772952,12287.418637,10362.883188,-77222.426198
82.775501,10658.965565,3997.112087,-71400.100414
82.778050,-11547.212695,-3997.112087,-80899.684589
82.780598,25315.043216,21762.054695,-70327.566716
82.783147,-5329.482782,-296.082377,-83351.190182
82.785696,18801.230927,17616.901420,-70480.785816
82.788245,5477.523971,15988.448347,-80286.808190
82.790794,38342.667796,34345.555709,-70787.224015
82.793343,-2072.576638,1332.370696,-83197.971083
82.795892,2516.700203,-5033.400406,-76149.892501
82.798440,10807.006753,26943.496289,-66956.746525
82.800989,18949.272115,11843.295072,-78754.617194
82.803538,51370.292375,31828.855506,-64198.802732
82.806092,-90601.207301,-62029.257940,-100205.291138
82.808647,44708.438897,12287.418637,-63279.488135
82.811201,-76537.294403,2072.576638,-95149.060852
82.813755,41155.450375,16432.571912,-68642.156621
82.816309,-27979.784608,-2664.741391,-78907.836294
82.818863,-13767.830521,-26351.331535,-78601.398095
82.821417,-30792.567187,4293.194464,-81665.780087
82.823972,5773.606348,-5625.565159,-88407.420469
82.826526,7698.141797,14211.954086,-75690.235202
82.829080,-10807.006753,-10214.842000,-87181.667672
82.831634,3552.988522,12731.542202,-67263.184724
82.834188,-13915.871710,-13175.665768,-81206.122788
82.836743,-14359.995275,-8438.347739,-77988.521696
82.839297,-23686.590144,-14804.118840,-80899.684589
82.841851,29164.114115,18653.189738,-68642.156621
82.844405,-17172.777854,3701.029710,-81972.218286
82.846959,1628.453072,-9770.718434,-76762.768900
82.849513,-12879.583391,-17912.983796,-81512.560987
82.852068,12435.459826,21465.972318,-80899.684589
82.854622,3701.029710,34493.596897,-89479.954166
82.857176,29608.237680,17468.860231,-72625.853210
82.859730,-50037.921679,-22058.137072,-93003.993457
82.862284,1184.329507,7254.018232,-79520.712692
82.864839,5773.606348,26351.331535,-89326.735067
82.867393,30052.361245,24574.837274,-87334.886772
82.869947,23686.590144,10362.883188,-78294.959896
82.872501,-21169.889941,2368.659014,-79367.493593
82.875055,26351.331535,17912.983796,-75843.454302
82.877609,-2072.576638,6957.935855,-84883.381178
82.880164,6809.894666,7254.018232,-75230.577904
82.882718,6957.935855,18209.066173,-76762.768900
82.885272,29608.237680,27091.537477,-78754.617194
82.887826,7105.977043,17912.983796,-80746.465489
82.890380,-20429.683999,-20281.642811,-87181.667672
82.892935,20281.642811,37306.379477,-67416.403824
82.895489,296.082377,2072.576638,-88407.420469
82.898043,56403.692780,40267.203245,-62360.173537
82.900597,-96078.731272,-58476.269418,-100358.510238
82.903151,35529.885216,10362.883188,-57916.819649
82.905705,-79942.241736,2812.782580,-89633.173266
82.908264,60548.846056,3256.906145,-82891.532884
82.910823,-22502.260637,18653.189738,-83197.971083
82.913382,-8142.265362,-27535.661042,-74770.920605
82.915941,-33457.308578,2812.782580,-80286.808190
82.918500,11103.089130,2664.741391,-89479.954166
82.921059,4441.235652,16432.571912,-76609.549800
82.923618,-14063.912898,-14359.995275,-83810.847481
82.926177,2812.782580,11251.130318,-69867.909418
82.928736,-14656.077652,-16580.613101,-83810.847481
82.931295,-4293.194464,-8882.471304,-78754.617194
82.933854,-16876.695478,-11991.336260,-79980.369991
82.936413,20429.683999,22946.384202,-74924.139704
82.938972,-26647.413912,-15396.283594,-84576.942979
82.941531,19097.313304,-9622.677246,-70021.128517
82.944090,-47669.262665,-3256.906145,-82125.437386
82.946649,84531.518576,59068.434172,-56537.847752
82.949208,-60696.887244,-3552.988522,-99132.757441
82.951767,94450.278199,25907.207970,-54086.342159
82.954326,-64101.834577,-11991.336260,-88254.201370
82.956885,29608.237680,12731.542202,-64045.583633
82.959444,21021.848753,28868.031738,-71859.757712
82.962003,12583.501014,13323.706956,-77988.521696
82.964562,-3404.947333,1332.370696,-78294.959896
82.967121,-3849.070898,592.164754,-81206.122788
82.969680,12287.418637,16728.654289,-76915.987999
82.972239,-8734.430116,3256.906145,-86262.353075
82.974798,16876.695478,19393.395680,-74004.825107
82.977357,7402.059420,15840.407159,-81052.903688
82.979916,30940.608376,32569.061448,-73391.948708
82.982475,-13027.624579,-17172.777854,-90246.049664
82.985034,-14804.118840,4145.153275,-79367.493593
82.987593,17912.983796,36418.132346,-73238.729609
82.990151,-12583.501014,-15248.242405,-99745.633840
82.992710,47373.180288,29312.155303,-66803.527426
82.995269,-67950.905476,-38046.585419,-93463.650756
82.997828,18505.148550,14359.995275,-68182.499322
83.000387,50334.004056,-9326.594869,-82431.875585
83.002946,12879.583391,25315.043216,-75996.673402
83.005505,-3108.864956,-33161.226202,-91318.583362
83.008064,-5625.565159,-3849.070898,-72319.415011
83.010627,-30200.402434,6217.729913,-75383.797003
83.013190,28423.908173,4441.235652,-71859.757712
83.015753,-6661.853478,2812.782580,-70940.443115
83.018317,-4293.194464,-9326.594869,-76762.768900
83.020880,-16284.530724,-2812.782580,-85036.600278
83.023443,-9030.512492,-17320.819043,-84576.942979
83.026006,-17616.901420,-7994.224174,-80746.465489
83.028569,9474.636058,4441.235652,-78294.959896
83.031132,-1776.494261,18209.066173,-77375.645298
83.033695,-8586.388927,-8882.471304,-78907.836294
83.036258,-5477.523971,-26203.290347,-83351.190182
83.038821,-29608.237680,-2072.576638,-84423.723880
83.041384,28868.031738,44116.274143,-73545.167808
83.043947,16728.654289,5625.565159,-81206.122788
83.046510,-20281.642811,-16876.695478,-94382.965354
83.049073,-888.247130,16580.613101,-74311.263306
83.051636,-2368.659014,13471.748144,-78601.398095
83.054199,31532.773129,22798.343014,-80286.808190
83.056762,20133.601622,15840.407159,-78601.398095
83.059325,-19985.560434,296.082377,-82278.656485
83.061889,20281.642811,11991.336260,-77835.302597
83.064452,-3256.906145,11843.295072,-84730.162079
83.067015,15100.201217,7994.224174,-78601.398095
83.069578,11103.089130,21169.889941,-75230.577904
83.072141,33309.267390,27239.578666,-73851.606007
83.074704,12731.542202,12287.418637,-77222.426198
83.077267,-17912.983796,-18505.148550,-86415.572174
83.079830,21021.848753,31680.814318,-67109.965625
83.082393,-1332.370696,-4737.318029,-86722.010374
83.084956,63953.793389,42931.944636,-54239.561258
83.087519,-95190.484141,-62473.381505,-102503.577632
83.090082,32124.937883,10510.924376,-62206.954438
83.092645,-67802.864287,3997.112087,-96528.032748
83.095208,43228.027013,13767.830521,-75077.358804
83.097771,-29608.237680,6957.935855,-77069.207099
83.100334,-14063.912898,-29756.278868,-75230.577904
83.102897,-34789.679274,3552.988522,-85036.600278
83.105461,21465.972318,1628.453072,-80746.465489
83.108024,-8882.471304,8586.388927,-74311.263306
83.110587,-14359.995275,-10807.006753,-82891.532884
83.113153,0.000000,7994.224174,-73851.606007
83.115718,-20133.601622,-15840.407159,-84423.723880
83.118284,-19245.354492,-15544.324782,-81512.560987
83.120850,-1628.453072,-888.247130,-79214.274493
83.123415,9326.594869,19541.436869,-72166.195912
83.125981,-21169.889941,-15692.365970,-82125.437386
83.128546,31236.690752,-20725.766376,-75996.673402
83.131112,-43079.985824,-6365.771101,-79827.150892
83.133677,111623.056054,76093.170838,-45352.853482
83.136243,-45300.603650,-14804.118840,-93157.212557
83.138808,72688.223504,4441.235652,-61594.078039
83.141374,-31532.773129,6217.729913,-72625.853210
83.143939,22206.178260,17764.942608,-61134.420740
83.146505,28719.990550,22650.301825,-85036.600278
83.149070,18209.066173,14508.036463,-80440.027290
83.151636,-10955.047942,592.164754,-80746.465489
83.154201,11695.253884,8438.347739,-79520.712692
83.156767,10362.883188,13767.830521,-75077.358804
83.159332,-1480.411884,1036.288319,-85343.038477
83.161898,21762.054695,23242.466579,-76456.330700
83.164463,15248.242405,27683.702231,-78907.836294
83.167029,19541.436869,9326.594869,-73085.510509
83.169594,-15840.407159,-15248.242405,-84117.285680
83.172160,19837.519246,30940.608376,-68948.594820
83.174726,8438.347739,5329.482782,-84270.504780
83.177291,51518.333563,31828.855506,-66343.870127
83.179857,-74612.758954,-47965.345042,-94382.965354
83.182422,27387.619854,444.123565,-60215.106143
83.184988,-72392.141128,6513.812290,-85189.819378
83.187553,46929.056723,17320.819043,-71553.319513
83.190119,-32865.143825,-5477.523971,-82278.656485
83.192684,-1332.370696,-22058.137072,-76609.549800
83.195252,-25315.043216,2960.823768,-78754.617194
83.197819,11251.130318,-4737.318029,-87947.763170
83.200387,8290.306550,14804.118840,-74004.825107
83.202955,-10510.924376,-11251.130318,-84270.504780
83.205522,4441.235652,8438.347739,-71706.538613
83.208090,-14359.995275,-15396.283594,-81512.560987
83.210658,-15988.448347,-15692.365970,-77375.645298
83.213225,1332.370696,3108.864956,-75843.454302
83.215793,9326.594869,17024.736666,-74158.044206
83.218361,-19245.354492,-11103.089130,-80746.465489
83.220928,20577.725188,-22798.343014,-79367.493593
83.223496,-45004.521274,-4293.194464,-81359.341888
83.226063,109254.397039,74316.676577,-44586.757984
83.228631,-14804.118840,-2516.700203,-90246.049664
83.231199,15692.365970,-15248.242405,-88254.201370
83.233766,-17320.819043,13915.871710,-80286.808190
83.236334,17320.819043,17616.901420,-73238.729609
83.238902,25907.207970,25907.207970,-81052.903688
83.241469,19837.519246,14952.160028,-79827.150892
83.244037,-9622.677246,1184.329507,-80440.027290
83.246605,13323.706956,7254.018232,-77988.521696
83.249172,17616.901420,7550.100608,-81818.999186
83.251740,8142.265362,11251.130318,-80286.808190
83.254308,18949.272115,22650.301825,-78448.178995
83.256875,26351.331535,25463.084405,-78294.959896
83.259443,18653.189738,6365.771101,-78448.178995
83.262010,-22206.178260,-11251.130318,-85649.476676
83.264578,28719.990550,39526.997303,-63279.488135
83.267146,-8882.471304,-2664.741391,-81665.780087
83.269713,68098.946664,37158.338288,-64964.898230
83.272281,-63065.546258,-45744.727216,-96068.375449
83.274849,9770.718434,9918.759623,-65424.555529
83.277416,-25611.125593,2812.782580,-89173.515967
83.279984,22206.178260,19097.313304,-69561.471218
83.282552,-19541.436869,-12731.542202,-79214.274493
83.285119,-14656.077652,-18653.189738,-76609.549800
83.287687,-33309.267390,2072.576638,-85649.476676
83.290254,15840.407159,740.205942,-87028.448573
83.292822,-5033.400406,6069.688724,-70634.004916
83.295390,-1332.370696,-5033.400406,-76762.768900
83.297959,-15100.201217,1184.329507,-75077.358804
83.300528,-13915.871710,-22206.178260,-81512.560987
83.303098,-11843.295072,-12879.583391,-78754.617194
83.305667,10362.883188,9918.759623,-81359.341888
83.308236,-7846.182985,10510.924376,-79827.150892
83.310806,-6365.771101,-5625.565159,-76149.892501
83.313375,-28127.825796,-17764.942608,-91778.240660
83.315944,31976.896694,38194.626607,-70021.128517
83.318514,-13767.830521,22354.219448,-91012.145162
83.321083,44264.315332,28571.949361,-68642.156621
83.323652,-40711.326810,-34493.596897,-101277.824836
83.326222,1776.494261,18357.107362,-74464.482406
83.328791,18357.107362,33013.185013,-77988.521696
