#time,accel_x,accel_y,accel_z
206.391855,1480.411884,5033.400406,-79061.055394
206.394427,1036.288319,4589.276840,-78907.836294
206.397000,1332.370696,4441.235652,-78907.836294
206.399573,1332.370696,4737.318029,-78907.836294
206.402145,1332.370696,4737.318029,-79061.055394
206.404718,1776.494261,4441.235652,-77988.521696
206.407291,1628.453072,4441.235652,-78601.398095
206.409864,2368.659014,4441.235652,-78448.178995
206.412436,1332.370696,4737.318029,-79061.055394
206.415009,1480.411884,4885.359217,-78754.617194
206.417582,1332.370696,5033.400406,-78754.617194
206.420154,888.247130,5033.400406,-78754.617194
206.422727,-1332.370696,5181.441594,-80286.808190
206.425300,2960.823768,4737.318029,-80746.465489
206.427872,-6809.894666,8882.471304,-80133.589091
206.430446,-2072.576638,12879.583391,-77222.426198
206.433019,7105.977043,6957.935855,-78907.836294
206.435592,3701.029710,9770.718434,-76456.330700
206.438165,-3701.029710,9622.677246,-76303.111601
206.440738,-9770.718434,15544.324782,-74311.263306
206.443311,-7846.182985,13175.665768,-76149.892501
206.445884,1628.453072,2960.823768,-77835.302597
206.448457,-5921.647536,5773.606348,-77835.302597
206.451030,3552.988522,4145.153275,-81206.122788
206.453603,-2960.823768,-2960.823768,-84883.381178
206.456176,6957.935855,13915.871710,-76915.987999
206.458749,888.247130,-5181.441594,-81818.999186
206.461322,-592.164754,-3701.029710,-86722.010374
206.463895,7550.100608,12583.501014,-85496.257577
206.466468,-8438.347739,4737.318029,-77069.207099
206.469041,11251.130318,-5033.400406,-72932.291410
206.471614,592.164754,592.164754,-85343.038477
206.474187,1628.453072,9622.677246,-73698.386908
206.476761,296.082377,-1776.494261,-73238.729609
206.479334,11695.253884,-3701.029710,-79827.150892
206.481907,4145.153275,444.123565,-82585.094684
206.484480,4589.276840,5477.523971,-75230.577904
206.487053,3701.029710,3552.988522,-77069.207099
206.489626,4737.318029,-1036.288319,-81665.780087
206.492199,9474.636058,5033.400406,-76915.987999
206.494772,7402.059420,1480.411884,-77835.302597
206.497345,5033.400406,296.082377,-79673.931792
206.499918,6217.729913,-1776.494261,-80746.465489
206.502491,8882.471304,-740.205942,-78601.398095
206.505064,11103.089130,-4293.194464,-81972.218286
206.507637,7550.100608,1184.329507,-79673.931792
206.510210,1628.453072,6217.729913,-76915.987999
206.512783,3997.112087,2812.782580,-78294.959896
206.515356,6365.771101,-592.164754,-77835.302597
206.517929,14656.077652,-10066.800811,-77988.521696
206.520502,-9622.677246,9622.677246,-79827.150892
206.523076,1628.453072,7402.059420,-77069.207099
206.525649,12435.459826,-5033.400406,-75230.577904
206.528222,-10362.883188,-1924.535449,-84576.942979
206.530795,23390.507767,-1480.411884,-79520.712692
206.533368,-5773.606348,1332.370696,-79367.493593
206.535941,31384.731941,8734.430116,-66650.308326
206.538515,-54923.280896,5773.606348,-82431.875585
206.541088,55071.322085,11991.336260,-67416.403824
206.543661,-36714.214723,14508.036463,-83657.628382
206.546235,59364.516548,-23390.507767,-79980.369991
206.548808,-19245.354492,2368.659014,-76609.549800
206.551381,16728.654289,10658.965565,-70021.128517
206.553955,-28571.949361,32124.937883,-83351.190182
206.556528,21465.972318,6365.771101,-68335.718422
206.559101,-3108.864956,-17616.901420,-83351.190182
206.561675,-7698.141797,10214.842000,-86875.229473
206.564248,-4145.153275,34049.473332,-74158.044206
206.566821,-15100.201217,-8734.430116,-83351.190182
206.569395,18061.024985,9030.512492,-78754.617194
206.571968,-17912.983796,592.164754,-86109.133975
206.574542,1776.494261,18209.066173,-71093.662214
206.577115,-5477.523971,-296.082377,-88407.420469
206.579688,2220.617826,10658.965565,-78754.617194
206.582262,-6513.812290,7402.059420,-75230.577904
206.584835,-3997.112087,13027.624579,-76456.330700
206.587408,1184.329507,6513.812290,-83504.409282
206.589982,2812.782580,8290.306550,-74004.825107
206.592555,5181.441594,3701.029710,-74617.701505
206.595128,-1184.329507,5477.523971,-81052.903688
206.597702,-2368.659014,6217.729913,-80593.246390
206.600275,-5181.441594,11399.171507,-76149.892501
206.602848,-2664.741391,16432.571912,-78141.740796
206.605422,-7994.224174,10362.883188,-79673.931792
206.607995,11399.171507,740.205942,-75230.577904
206.610568,-4145.153275,0.000000,-80440.027290
206.613142,-4441.235652,14656.077652,-80286.808190
206.615715,-10362.883188,18505.148550,-77682.083497
206.618288,7254.018232,-1036.288319,-77835.302597
206.620862,3404.947333,-2072.576638,-85649.476676
206.623435,-2960.823768,22798.343014,-75077.358804
206.626008,-3256.906145,6069.688724,-73545.167808
206.628582,-2812.782580,9178.553681,-79367.493593
206.631155,20429.683999,4737.318029,-76915.987999
206.633728,-41007.409187,4589.276840,-85496.257577
206.636302,41303.491564,6069.688724,-69561.471218
206.638876,-43228.027013,3404.947333,-93310.431656
206.641449,79498.118171,10214.842000,-64964.898230
206.644023,-67358.740722,14508.036463,-83351.190182
206.646597,65434.205273,6661.853478,-61747.297139
206.649171,-30940.608376,-1776.494261,-85649.476676
206.651744,77721.623910,-7698.141797,-65118.117330
206.654318,-22206.178260,-4441.235652,-84117.285680
206.656892,25759.166782,20577.725188,-62973.049936
206.659465,148.041188,-8142.265362,-80899.684589
206.662039,9474.636058,-296.082377,-77222.426198
206.664613,20873.807564,-1776.494261,-71400.100414
206.667186,-7402.059420,-1332.370696,-74311.263306
206.669760,17468.860231,6217.729913,-80746.465489
206.672334,-5921.647536,-4441.235652,-90246.049664
206.674907,12139.377449,5181.441594,-73085.510509
206.677481,-6957.935855,1036.288319,-75230.577904
206.680055,11991.336260,1036.288319,-83657.628382
206.682628,-1776.494261,1036.288319,-79980.369991
206.685202,7402.059420,2516.700203,-73851.606007
206.687776,-148.041188,2664.741391,-80286.808190
206.690350,2072.576638,1924.535449,-79673.931792
206.692923,148.041188,4737.318029,-75996.673402
206.695497,8734.430116,-1480.411884,-80899.684589
206.698071,8734.430116,-3997.112087,-79827.150892
206.700644,12139.377449,-6217.729913,-77835.302597
206.703218,2072.576638,4589.276840,-78907.836294
206.705792,-4589.276840,5181.441594,-80899.684589
206.708365,6513.812290,5181.441594,-75996.673402
206.710939,10214.842000,-8586.388927,-82891.532884
206.713513,13175.665768,-3404.947333,-83504.409282
206.716086,-1036.288319,20281.642811,-73545.167808
206.718660,-148.041188,2220.617826,-73085.510509
206.721234,17024.736666,-7698.141797,-77835.302597
206.723807,-2664.741391,4589.276840,-83964.066581
206.726381,11843.295072,-2516.700203,-75077.358804
206.728955,-9474.636058,148.041188,-82738.313784
206.731529,26647.413912,2516.700203,-70634.004916
206.734102,-44856.480085,3997.112087,-81359.341888
206.736676,47669.262665,7846.182985,-74464.482406
206.739249,-39526.997303,7550.100608,-89020.296868
206.741822,45004.521274,-14359.995275,-72625.853210
206.744396,-34789.679274,-3552.988522,-88407.420469
206.746969,-2664.741391,30792.567187,-74770.920605
206.749542,-26647.413912,11399.171507,-81972.218286
206.752115,22650.301825,12287.418637,-67416.403824
206.754688,-18209.066173,-18653.189738,-93616.869856
206.757262,11991.336260,21465.972318,-76303.111601
206.759835,-18209.066173,23686.590144,-74004.825107
206.762408,7846.182985,-4441.235652,-80286.808190
206.764981,6957.935855,1924.535449,-86415.572174
206.767555,-15100.201217,19541.436869,-72932.291410
206.770128,5477.523971,15988.448347,-72472.634111
206.772701,-8290.306550,2220.617826,-85802.695776
206.775274,12583.501014,7105.977043,-73545.167808
206.777848,-12731.542202,7402.059420,-73851.606007
206.780421,740.205942,12435.459826,-79367.493593
206.782994,-3552.988522,2960.823768,-86262.353075
206.785567,-2516.700203,8882.471304,-75996.673402
206.788140,-12435.459826,7550.100608,-78754.617194
206.790714,4145.153275,7105.977043,-79827.150892
206.793287,-7402.059420,11843.295072,-78448.178995
206.795860,-4441.235652,18505.148550,-76303.111601
206.798433,1924.535449,6809.894666,-79980.369991
206.801007,888.247130,3108.864956,-76303.111601
206.803580,-2516.700203,3256.906145,-78448.178995
206.806153,-7402.059420,19245.354492,-79367.493593
206.808726,-3552.988522,8142.265362,-77528.864398
206.811299,5181.441594,-1776.494261,-78294.959896
206.813873,-15840.407159,11399.171507,-82125.437386
206.816446,-5921.647536,14063.912898,-77835.302597
206.819019,-3849.070898,3701.029710,-78601.398095
206.821592,-12879.583391,24278.754898,-76609.549800
206.824166,24574.837274,-7254.018232,-78754.617194
206.826739,-33309.267390,19393.395680,-78448.178995
206.829312,-8882.471304,-18061.024985,-83504.409282
206.831885,3701.029710,13471.748144,-65884.212828
206.834459,5477.523971,-7698.141797,-85802.695776
206.837032,-3552.988522,17172.777854,-78907.836294
206.839605,-15988.448347,-11991.336260,-90246.049664
206.842178,-16876.695478,19097.313304,-66650.308326
206.844751,38194.626607,-32865.143825,-81512.560987
206.847324,-30200.402434,10807.006753,-87488.105872
206.849897,12139.377449,9918.759623,-74464.482406
206.852471,-6069.688724,-15248.242405,-77375.645298
206.855044,34049.473332,-3552.988522,-81818.999186
206.857617,-18357.107362,7105.977043,-88254.201370
206.860190,17172.777854,8142.265362,-74158.044206
206.862763,-444.123565,-1628.453072,-79673.931792
206.865336,6661.853478,-4145.153275,-80746.465489
206.867909,7105.977043,4737.318029,-74464.482406
206.870483,-4293.194464,3256.906145,-80440.027290
206.873056,6809.894666,1036.288319,-80286.808190
206.875629,-592.164754,-2664.741391,-79980.369991
206.878202,8438.347739,5033.400406,-78601.398095
206.880775,-3849.070898,1776.494261,-84117.285680
206.883348,2960.823768,6809.894666,-77069.207099
206.885921,3552.988522,-4145.153275,-80286.808190
206.888494,11103.089130,-2368.659014,-79827.150892
206.891068,5921.647536,-1480.411884,-80133.589091
206.893641,296.082377,5181.441594,-75077.358804
206.896214,3552.988522,6069.688724,-78754.617194
206.898787,12287.418637,-4293.194464,-81359.341888
206.901360,13471.748144,-6513.812290,-80899.684589
206.903933,-9030.512492,12583.501014,-80286.808190
206.906506,7698.141797,5477.523971,-75690.235202
206.909079,10362.883188,-6513.812290,-77069.207099
206.911653,1332.370696,6513.812290,-81512.560987
206.914226,16136.489536,-2072.576638,-73391.948708
206.916799,-12879.583391,-3552.988522,-84117.285680
206.919372,22206.178260,9326.594869,-74004.825107
206.921945,-33901.432144,10214.842000,-76609.549800
206.924518,35825.967593,11399.171507,-68182.499322
206.927091,-41007.409187,21614.013506,-78754.617194
206.929665,37454.420665,-19393.395680,-86109.133975
206.932238,-26203.290347,26055.249158,-70634.004916
206.934811,27239.578666,12879.583391,-73698.386908
206.937384,-20133.601622,18653.189738,-88254.201370
206.939957,17320.819043,14804.118840,-77222.426198
206.942530,-1924.535449,-7105.977043,-71859.757712
206.945103,-5181.441594,1332.370696,-72166.195912
206.947675,8882.471304,35974.008781,-66343.870127
206.950248,-8882.471304,0.000000,-80286.808190
206.952820,10807.006753,3701.029710,-77069.207099
206.955393,-15396.283594,7846.182985,-81206.122788
206.957965,3552.988522,26203.290347,-69714.690318
206.960538,-5921.647536,1184.329507,-83810.847481
206.963110,9622.677246,2072.576638,-80133.589091
206.965683,-10510.924376,8142.265362,-79673.931792
206.968256,148.041188,16284.530724,-73851.606007
206.970828,1776.494261,-148.041188,-83964.066581
206.973401,-2960.823768,9918.759623,-79367.493593
206.975973,1776.494261,3997.112087,-76762.768900
206.978546,-6365.771101,8438.347739,-77988.521696
206.981118,-2516.700203,8586.388927,-80746.465489
206.983691,-4441.235652,16580.613101,-77069.207099
206.986263,1628.453072,5477.523971,-79980.369991
206.988836,-4293.194464,8586.388927,-80440.027290
206.991408,-5477.523971,14656.077652,-75230.577904
206.993981,-3849.070898,8882.471304,-76149.892501
206.996553,2220.617826,1480.411884,-81665.780087
206.999126,-16432.571912,14211.954086,-79673.931792
207.001698,5181.441594,5181.441594,-76915.987999
207.004271,-6365.771101,-1036.288319,-85649.476676
207.006844,-14211.954086,31532.773129,-80440.027290
207.009416,22206.178260,-3108.864956,-77988.521696
207.011989,-34049.473332,11547.212695,-82431.875585
207.014561,38786.791361,-7846.182985,-81052.903688
207.017134,-23686.590144,18505.148550,-73851.606007
207.019706,-1628.453072,-1184.329507,-82891.532884
207.022279,-1776.494261,14211.954086,-76915.987999
207.024851,-9918.759623,-21910.095883,-89633.173266
207.027424,-12583.501014,14952.160028,-73238.729609
207.029996,40711.326810,-28423.908173,-91625.021561
207.032569,-25018.960840,13471.748144,-84270.504780
207.035141,18949.272115,19837.519246,-74004.825107
207.037714,-6513.812290,-9326.594869,-81359.341888
207.040286,32569.061448,-3256.906145,-79827.150892
207.042859,-19393.395680,7698.141797,-78448.178995
207.045432,18653.189738,2664.741391,-73545.167808
207.048004,592.164754,-2664.741391,-83964.066581
207.050576,17024.736666,-5625.565159,-78907.836294
207.053148,3256.906145,5773.606348,-73698.386908
207.055720,-6365.771101,4737.318029,-79367.493593
207.058292,13619.789333,-148.041188,-79827.150892
207.060864,5033.400406,296.082377,-77375.645298
207.063436,2072.576638,7402.059420,-77069.207099
207.066008,1480.411884,740.205942,-80899.684589
207.068580,12879.583391,148.041188,-77069.207099
207.071152,3108.864956,-1036.288319,-80286.808190
207.073724,9030.512492,-2220.617826,-79367.493593
207.076296,2220.617826,-2812.782580,-79061.055394
207.078868,3404.947333,5329.482782,-78141.740796
207.081440,7994.224174,1036.288319,-77222.426198
207.084012,4885.359217,-5921.647536,-76303.111601
207.086584,-888.247130,14359.995275,-71400.100414
207.089156,8586.388927,-6217.729913,-79367.493593
207.091728,17616.901420,-6513.812290,-81359.341888
207.094300,-9474.636058,11843.295072,-81818.999186
207.096872,21910.095883,1480.411884,-70787.224015
207.099444,-8438.347739,-12287.418637,-85649.476676
207.102016,27091.537477,11103.089130,-70940.443115
207.104589,-38786.791361,3849.070898,-76149.892501
207.107161,50778.127621,740.205942,-68948.594820
207.109733,-41895.656317,22946.384202,-82278.656485
207.112305,55367.404462,-15544.324782,-73085.510509
207.114877,-21021.848753,-9474.636058,-91318.583362
207.117449,6957.935855,27831.743419,-79827.150892
207.120021,-18357.107362,16432.571912,-84423.723880
207.122593,22206.178260,14359.995275,-66343.870127
207.125165,-16580.613101,-16580.613101,-83351.190182
207.127737,9918.759623,21762.054695,-77375.645298
207.130309,-27831.743419,23834.631332,-79520.712692
207.132881,12287.418637,2664.741391,-76762.768900
207.135453,-2664.741391,-5921.647536,-85955.914876
207.138025,-13175.665768,18209.066173,-78141.740796
207.140597,-9918.759623,22058.137072,-77069.207099
207.143169,4145.153275,7698.141797,-82585.094684
207.145741,10066.800811,4737.318029,-74004.825107
207.148313,-6365.771101,8586.388927,-77528.864398
207.150886,-1628.453072,13175.665768,-82278.656485
207.153457,-3997.112087,3997.112087,-80286.808190
207.156028,6069.688724,1924.535449,-73238.729609
207.158599,-7402.059420,11695.253884,-74617.701505
207.161170,6513.812290,14211.954086,-73851.606007
207.163741,-3997.112087,11547.212695,-72166.195912
207.166312,888.247130,5033.400406,-76303.111601
207.168883,-7105.977043,13619.789333,-80133.589091
207.171454,-296.082377,2664.741391,-75843.454302
207.174025,4293.194464,4293.194464,-78754.617194
207.176596,1628.453072,14952.160028,-81206.122788
207.179167,-10510.924376,11843.295072,-77988.521696
207.181738,9178.553681,-3256.906145,-78448.178995
207.184309,7402.059420,12583.501014,-81818.999186
207.186880,22354.219448,15840.407159,-72472.634111
207.189451,-55071.322085,6217.729913,-87028.448573
207.192022,51518.333563,4145.153275,-73391.948708
207.194593,-35381.844028,-11843.295072,-96987.690047
207.197164,62029.257940,13027.624579,-65118.117330
207.199735,-60400.804867,9918.759623,-93310.431656
207.202306,78017.706287,10066.800811,-64045.583633
207.204877,-38490.708984,-15544.324782,-91012.145162
207.207448,65138.122896,3997.112087,-65730.993728
207.210019,-7550.100608,-5625.565159,-85343.038477
207.212590,25167.002028,26351.331535,-65118.117330
207.215161,-1480.411884,-2516.700203,-74924.139704
207.217732,11251.130318,-11991.336260,-79980.369991
207.220303,19541.436869,444.123565,-80593.246390
207.222875,-17764.942608,10658.965565,-77528.864398
207.225446,25463.084405,4737.318029,-69867.909418
207.228017,-3849.070898,-11991.336260,-85343.038477
207.230588,26795.455100,888.247130,-73391.948708
207.233159,-8438.347739,2368.659014,-78754.617194
207.235730,12139.377449,3108.864956,-80286.808190
207.238301,1480.411884,-5033.400406,-81818.999186
207.240872,7402.059420,7402.059420,-73085.510509
207.243443,6957.935855,-888.247130,-78754.617194
207.246014,3404.947333,-592.164754,-79980.369991
207.248585,13027.624579,-2960.823768,-80440.027290
207.251156,2072.576638,-2664.741391,-81206.122788
207.253726,5625.565159,1036.288319,-79214.274493
207.256297,7105.977043,-2072.576638,-78294.959896
207.258867,7846.182985,888.247130,-79980.369991
207.261438,-4145.153275,10807.006753,-79061.055394
207.264008,3997.112087,-888.247130,-76456.330700
207.266579,15248.242405,-5477.523971,-76609.549800
207.269149,3997.112087,1628.453072,-85496.257577
207.271720,11103.089130,14359.995275,-74617.701505
207.274290,-1924.535449,-16432.571912,-83964.066581
207.276861,16284.530724,4293.194464,-81972.218286
207.279431,-4589.276840,8586.388927,-78448.178995
207.282002,-16284.530724,15840.407159,-80440.027290
207.284572,-3404.947333,14952.160028,-87794.544071
207.287143,9474.636058,-13619.789333,-93157.212557
207.289713,-18209.066173,27387.619854,-71553.319513
207.292284,3108.864956,-3404.947333,-85189.819378
207.294854,-14804.118840,19541.436869,-76609.549800
207.297425,-14063.912898,4441.235652,-81972.218286
207.299995,21910.095883,5329.482782,-72625.853210
207.302566,-24130.713709,-10510.924376,-93923.308055
207.305136,12879.583391,29016.072926,-71246.881314
207.307707,-24870.919651,16284.530724,-76456.330700
207.310277,20577.725188,2664.741391,-73851.606007
207.312848,-10362.883188,-6661.853478,-87641.324971
207.315418,-2664.741391,24574.837274,-69408.252119
207.317989,-11695.253884,9770.718434,-79980.369991
207.320559,7105.977043,3849.070898,-81665.780087
207.323130,-3849.070898,1480.411884,-78754.617194
207.325700,4589.276840,11251.130318,-68488.937521
207.328271,296.082377,444.123565,-79827.150892
207.330841,-740.205942,10362.883188,-78448.178995
207.333412,-1184.329507,5921.647536,-77988.521696
207.335982,-2220.617826,13915.871710,-80286.808190
207.338553,-7994.224174,11695.253884,-80286.808190
207.341123,-8586.388927,11103.089130,-79980.369991
207.343694,4293.194464,7402.059420,-79827.150892
207.346264,-6661.853478,4145.153275,-83657.628382
207.348835,7105.977043,7550.100608,-77069.207099
207.351405,-25611.125593,14063.912898,-81818.999186
207.353976,2812.782580,15692.365970,-77988.521696
207.356545,740.205942,-10362.883188,-79061.055394
207.359115,-11843.295072,28571.949361,-74770.920605
207.361684,20577.725188,0.000000,-80593.246390
207.364254,-30644.525999,12287.418637,-82891.532884
207.366823,45004.521274,-3108.864956,-74770.920605
207.369393,-27831.743419,12879.583391,-74464.482406
207.371962,65878.328838,1628.453072,-62819.830836
207.374532,-53886.992578,5773.606348,-79367.493593
207.377101,-444.123565,-16284.530724,-90705.706963
207.379671,-30200.402434,20873.807564,-76456.330700
207.382240,56847.816346,-26055.249158,-81818.999186
207.384810,-45596.686027,7698.141797,-89173.515967
207.387380,28571.949361,23982.672521,-74004.825107
207.389949,-12435.459826,-15248.242405,-84730.162079
207.392519,20725.766376,-8290.306550,-82738.313784
207.395088,2516.700203,6513.812290,-86262.353075
207.397658,11399.171507,9030.512492,-70174.347617
207.400227,5477.523971,-2516.700203,-78754.617194
207.402797,13027.624579,-9030.512492,-85189.819378
207.405366,5033.400406,8882.471304,-77222.426198
207.407936,-7550.100608,4293.194464,-76762.768900
207.410505,9918.759623,888.247130,-75843.454302
207.413075,-12139.377449,-592.164754,-83657.628382
207.415644,14508.036463,8586.388927,-76915.987999
207.418214,-11251.130318,-2516.700203,-79520.712692
207.420783,19393.395680,-1776.494261,-79520.712692
207.423353,-444.123565,-5033.400406,-82738.313784
207.425922,5773.606348,1924.535449,-77682.083497
207.428492,4145.153275,-5181.441594,-81512.560987
207.431061,-2368.659014,3997.112087,-81512.560987
207.433631,7698.141797,6661.853478,-79520.712692
207.436200,5033.400406,-8290.306550,-81359.341888
207.438770,16728.654289,-3849.070898,-80133.589091
207.441339,-9474.636058,13767.830521,-78754.617194
207.443909,22798.343014,-2812.782580,-71553.319513
207.446478,-5181.441594,-7254.018232,-83504.409282
207.449048,19837.519246,10066.800811,-71093.662214
207.451617,-34197.514520,10807.006753,-72625.853210
207.454187,32272.979071,8882.471304,-65118.117330
207.456756,-45448.644839,27091.537477,-73851.606007
207.459326,53146.786636,-26203.290347,-77528.864398
207.461895,-38638.750172,-296.082377,-89173.515967
207.464464,18061.024985,25463.084405,-72472.634111
207.467033,-12435.459826,12435.459826,-80286.808190
207.469602,7994.224174,13915.871710,-73238.729609
207.472171,-888.247130,-2516.700203,-78141.740796
207.474740,-1776.494261,2368.659014,-75230.577904
207.477309,-7698.141797,24722.878463,-74158.044206
207.479878,-8734.430116,11843.295072,-80746.465489
207.482447,888.247130,-6809.894666,-82585.094684
207.485016,-4589.276840,5329.482782,-77222.426198
207.487585,-13027.624579,26943.496289,-74158.044206
207.490154,-8290.306550,8586.388927,-83044.751983
207.492723,12731.542202,3404.947333,-79520.712692
207.495292,-2812.782580,-1776.494261,-80899.684589
207.497861,10658.965565,13471.748144,-68029.280222
207.500431,-6513.812290,2960.823768,-80746.465489
207.503000,888.247130,12731.542202,-74311.263306
207.505569,-6365.771101,9622.677246,-76303.111601
207.508138,-6365.771101,21317.931130,-75843.454302
207.510707,-4885.359217,9474.636058,-80746.465489
207.513276,1332.370696,4737.318029,-77069.207099
207.515845,1036.288319,2960.823768,-81206.122788
207.518414,-2368.659014,17172.777854,-79214.274493
207.520983,-17616.901420,18061.024985,-76915.987999
207.523552,2960.823768,-3997.112087,-79827.150892
207.526121,4293.194464,7698.141797,-85955.914876
207.528690,-5625.565159,21910.095883,-76149.892501
207.531259,-26795.455100,5773.606348,-79061.055394
207.533828,33457.308578,2812.782580,-75996.673402
207.536397,-29608.237680,-15544.324782,-96374.813648
207.538966,38786.791361,20725.766376,-67263.184724
207.541536,-49741.839302,5033.400406,-95149.060852
207.544105,53294.827824,6069.688724,-68948.594820
207.546674,-33753.390955,-4441.235652,-86568.791274
207.549243,65730.287650,6661.853478,-68029.280222
207.551812,-13915.871710,-5329.482782,-83044.751983
207.554381,22354.219448,11843.295072,-63126.269035
207.556950,-1628.453072,-888.247130,-75996.673402
207.559519,7698.141797,-8438.347739,-77835.302597
207.562087,27239.578666,-5181.441594,-75077.358804
207.564655,-16432.571912,9622.677246,-75383.797003
207.567223,10362.883188,8734.430116,-78601.398095
207.569791,7698.141797,-14359.995275,-87181.667672
207.572359,14804.118840,296.082377,-77682.083497
207.574927,-9474.636058,7698.141797,-79061.055394
207.577495,8586.388927,7105.977043,-76456.330700
207.580063,-444.123565,148.041188,-80593.246390
207.582630,13471.748144,2072.576638,-73698.386908
207.585198,1480.411884,2960.823768,-78448.178995
207.587766,17616.901420,-3404.947333,-78601.398095
207.590334,14952.160028,-6069.688724,-77222.426198
207.592902,5477.523971,296.082377,-77222.426198
207.595470,5773.606348,3108.864956,-78294.959896
207.598038,3108.864956,11695.253884,-76762.768900
207.600606,10658.965565,-3404.947333,-78141.740796
207.603174,20133.601622,-10510.924376,-77375.645298
207.605742,-296.082377,9474.636058,-78294.959896
207.608310,-3256.906145,19689.478057,-71553.319513
207.610878,3997.112087,-28868.031738,-87794.544071
207.613446,12435.459826,-444.123565,-86568.791274
207.616014,17024.736666,10066.800811,-77375.645298
207.618582,-35677.926404,15100.201217,-82891.532884
207.621150,30644.525999,-5329.482782,-88254.201370
207.623718,-8882.471304,-6809.894666,-91625.021561
207.626286,6069.688724,17912.983796,-77835.302597
207.628854,-17912.983796,-2368.659014,-95915.156350
207.631421,-16876.695478,25315.043216,-72625.853210
207.633989,-14804.118840,5477.523971,-83197.971083
207.636557,26499.372724,12583.501014,-68182.499322
207.639125,-26499.372724,-16876.695478,-92697.555258
207.641693,14952.160028,23538.548956,-71246.881314
207.644261,-27239.578666,21169.889941,-81512.560987
207.646829,17024.736666,9918.759623,-73391.948708
207.649397,-5181.441594,-12435.459826,-85496.257577
207.651965,-4589.276840,22502.260637,-72932.291410
207.654533,-15692.365970,18801.230927,-77222.426198
207.657101,9918.759623,-1184.329507,-81972.218286
207.659669,-1036.288319,6661.853478,-80899.684589
207.662237,4737.318029,5921.647536,-78601.398095
207.664804,-2960.823768,6809.894666,-77069.207099
207.667371,-3256.906145,8290.306550,-80286.808190
207.669939,-4589.276840,13471.748144,-77222.426198
207.672506,-17172.777854,17912.983796,-76456.330700
207.675073,-2368.659014,3404.947333,-80899.684589
207.677640,-148.041188,1184.329507,-82125.437386
207.680208,-2516.700203,9622.677246,-81359.341888
207.682775,-17912.983796,20577.725188,-78141.740796
207.685342,-12139.377449,11547.212695,-75996.673402
207.687909,3404.947333,-7254.018232,-83197.971083
207.690477,2960.823768,21614.013506,-81052.903688
207.693044,21910.095883,5033.400406,-73238.729609
207.695611,-50037.921679,3552.988522,-89173.515967
207.698178,51962.457128,1332.370696,-75996.673402
207.700745,-36122.049970,-4589.276840,-92697.555258
207.703313,71207.811620,14359.995275,-61287.639840
207.705880,-69579.358548,5181.441594,-92850.774358
207.708447,79202.035794,5181.441594,-63432.707234
207.711014,-30348.443622,-15544.324782,-89633.173266
207.713582,71059.770432,-3997.112087,-68335.718422
207.716149,-15988.448347,-2368.659014,-79827.150892
207.718716,30792.567187,12731.542202,-67109.965625
207.721283,-6809.894666,3404.947333,-78601.398095
207.723851,18653.189738,-11843.295072,-79673.931792
207.726418,15692.365970,-2072.576638,-78601.398095
207.728985,-12435.459826,6513.812290,-78448.178995
207.731552,10066.800811,13027.624579,-72472.634111
207.734120,11843.295072,-15396.283594,-86722.010374
207.736687,23242.466579,-1924.535449,-78141.740796
207.739254,-9770.718434,5773.606348,-79980.369991
207.741821,11547.212695,8882.471304,-76609.549800
207.744389,-1924.535449,-296.082377,-79520.712692
207.746955,13471.748144,3701.029710,-73851.606007
207.749522,7402.059420,-2960.823768,-78907.836294
207.752089,6809.894666,-7402.059420,-82431.875585
207.754656,10807.006753,-4145.153275,-79520.712692
207.757223,888.247130,7402.059420,-77835.302597
207.759790,-3404.947333,16728.654289,-76609.549800
207.762357,9474.636058,-10066.800811,-78141.740796
207.764923,20133.601622,-11399.171507,-75537.016103
207.767490,-5773.606348,8586.388927,-82431.875585
207.770057,740.205942,20429.683999,-73545.167808
207.772624,4737.318029,-21465.972318,-82585.094684
207.775191,9622.677246,-6957.935855,-80746.465489
207.777758,13619.789333,5181.441594,-80440.027290
207.780325,-30644.525999,14656.077652,-85955.914876
207.782891,26499.372724,3404.947333,-86109.133975
207.785458,-5773.606348,-2960.823768,-87334.886772
207.788025,5181.441594,16580.613101,-70940.443115
207.790592,-19245.354492,-4737.318029,-93310.431656
207.793159,-10214.842000,30644.525999,-79520.712692
207.795726,-13915.871710,5773.606348,-84117.285680
207.798292,25463.084405,18505.148550,-67876.061123
207.800859,-28423.908173,-13915.871710,-94842.622652
207.803426,9918.759623,22058.137072,-72319.415011
207.805993,-23242.466579,17468.860231,-77682.083497
207.808560,13027.624579,9622.677246,-75690.235202
207.811127,0.000000,-11251.130318,-89479.954166
207.813694,-2812.782580,11991.336260,-79980.369991
207.816260,-6069.688724,25018.960840,-73851.606007
207.818827,5773.606348,1480.411884,-82738.313784
207.821394,-4589.276840,5625.565159,-81512.560987
207.823961,-1480.411884,7846.182985,-78907.836294
207.826528,1332.370696,5181.441594,-75230.577904
207.829095,-5773.606348,7550.100608,-80440.027290
207.831661,-4589.276840,17616.901420,-79367.493593
207.834228,-12287.418637,16728.654289,-79214.274493
207.836795,4293.194464,6069.688724,-78141.740796
207.839362,3701.029710,1480.411884,-80286.808190
207.841929,-14508.036463,20577.725188,-78141.740796
207.844496,-4293.194464,12879.583391,-77528.864398
207.847063,1036.288319,-8290.306550,-81512.560987
207.849628,5181.441594,12879.583391,-80440.027290
207.852194,7402.059420,23242.466579,-72319.415011
207.854760,-21762.054695,1924.535449,-79520.712692
207.857326,4589.276840,9474.636058,-71859.757712
207.859891,-35677.926404,-16580.613101,-99898.852939
207.862457,39526.997303,21762.054695,-68488.937521
207.865023,-48113.386230,4589.276840,-95761.937250
207.867589,55071.322085,4293.194464,-68642.156621
207.870154,-38934.832549,-21021.848753,-95915.156350
207.872720,26943.496289,17912.983796,-72472.634111
207.875286,9474.636058,-17320.819043,-93310.431656
207.877852,-11399.171507,8142.265362,-80746.465489
207.880417,2516.700203,11399.171507,-73545.167808
207.882983,9326.594869,-6957.935855,-77528.864398
207.885549,28719.990550,-5181.441594,-75843.454302
207.888115,-12583.501014,7402.059420,-75843.454302
207.890680,13175.665768,13027.624579,-65271.336430
207.893246,4737.318029,-8438.347739,-78601.398095
207.895812,25167.002028,-5921.647536,-78754.617194
207.898378,-5477.523971,7254.018232,-73545.167808
207.900944,3849.070898,1776.494261,-75077.358804
207.903509,-9178.553681,7550.100608,-82585.094684
207.906075,13619.789333,0.000000,-79980.369991
207.908641,10214.842000,-444.123565,-76762.768900
207.911207,10658.965565,-11399.171507,-82125.437386
207.913772,9030.512492,1332.370696,-78601.398095
207.916338,1184.329507,7698.141797,-77222.426198
207.918904,6809.894666,3552.988522,-76915.987999
207.921470,12731.542202,-17468.860231,-85189.819378
207.924035,8882.471304,4145.153275,-78754.617194
207.926601,-8586.388927,16136.489536,-73851.606007
207.929167,12879.583391,-6069.688724,-75690.235202
207.931733,4885.359217,-8290.306550,-87794.544071
207.934298,12139.377449,3256.906145,-79980.369991
207.936864,-28571.949361,11991.336260,-74464.482406
207.939430,23834.631332,12287.418637,-70480.785816
207.941996,-45300.603650,23834.631332,-81818.999186
207.944562,54923.280896,-16876.695478,-69867.909418
207.947127,-40859.367998,4737.318029,-77222.426198
207.949693,24278.754898,18801.230927,-73391.948708
207.952258,-17024.736666,4737.318029,-84883.381178
207.954823,19245.354492,20133.601622,-68029.280222
207.957388,-21762.054695,-8142.265362,-86722.010374
207.959953,13471.748144,7105.977043,-79520.712692
207.962518,-19689.478057,18653.189738,-80440.027290
207.965083,3997.112087,16432.571912,-73698.386908
207.967648,-1628.453072,-7698.141797,-84270.504780
207.970213,0.000000,4145.153275,-78448.178995
207.972778,-6661.853478,20725.766376,-74770.920605
207.975343,-4589.276840,10807.006753,-79673.931792
207.977908,5477.523971,4145.153275,-77069.207099
207.980473,-6217.729913,5921.647536,-77375.645298
207.983038,7254.018232,7550.100608,-73085.510509
207.985603,-13323.706956,7550.100608,-83044.751983
207.988169,-148.041188,16876.695478,-78601.398095
207.990734,-6217.729913,9622.677246,-76609.549800
207.993299,740.205942,6217.729913,-79367.493593
207.995864,1628.453072,10807.006753,-82278.656485
207.998429,-17172.777854,17616.901420,-77528.864398
208.000994,3552.988522,8142.265362,-73085.510509
208.003559,-148.041188,-6957.935855,-83351.190182
208.006124,-6809.894666,29460.196492,-79980.369991
208.008689,29904.320057,4145.153275,-73698.386908
208.011254,-27535.661042,10955.047942,-78601.398095
208.013819,37010.297100,1036.288319,-77682.083497
208.016384,-29756.278868,15248.242405,-81359.341888
208.018949,70911.729244,-5773.606348,-68795.375720
208.021514,-66766.575968,2368.659014,-84270.504780
208.024079,60548.846056,-3701.029710,-70327.566716
208.026644,-29904.320057,9474.636058,-86415.572174
208.029209,54627.198520,-2812.782580,-73238.729609
208.031774,-30940.608376,-888.247130,-86109.133975
208.034339,23094.425390,17024.736666,-80593.246390
208.036904,-16728.654289,-592.164754,-87488.105872
208.039469,21169.889941,-11695.253884,-80440.027290
208.042034,3404.947333,-3404.947333,-82891.532884
208.044599,-4145.153275,10510.924376,-81359.341888
208.047164,2664.741391,13619.789333,-77222.426198
208.049729,10510.924376,-12879.583391,-82431.875585
208.052294,5033.400406,5181.441594,-79214.274493
208.054859,-4441.235652,4441.235652,-79980.369991
208.057424,11695.253884,5921.647536,-73238.729609
208.059988,-4293.194464,-2072.576638,-79673.931792
208.062553,18061.024985,-740.205942,-73238.729609
208.065117,-1628.453072,-5921.647536,-78141.740796
208.067682,12435.459826,-1184.329507,-80286.808190
208.070247,-2072.576638,12435.459826,-77835.302597
208.072811,6365.771101,-3849.070898,-76456.330700
208.075376,17468.860231,-10510.924376,-80746.465489
208.077941,-1628.453072,6809.894666,-82891.532884
208.080505,-444.123565,20133.601622,-70940.443115
208.083070,8586.388927,-21021.848753,-77528.864398
208.085634,8438.347739,1332.370696,-78907.836294
208.088199,16284.530724,5033.400406,-73391.948708
208.090764,-27239.578666,4737.318029,-74770.920605
208.093328,46632.974346,2072.576638,-82125.437386
208.095893,-30348.443622,21169.889941,-79367.493593
208.098457,33309.267390,-2368.659014,-64964.898230
208.101022,-38934.832549,-10214.842000,-88867.077768
208.103587,9622.677246,29460.196492,-75230.577904
208.106151,-10362.883188,3849.070898,-87947.763170
208.108716,9918.759623,20577.725188,-75996.673402
208.111281,-16136.489536,-3404.947333,-84270.504780
208.113845,9770.718434,11103.089130,-71859.757712
208.116410,-22650.301825,15396.283594,-83964.066581
208.118974,3552.988522,22650.301825,-75690.235202
208.121539,2664.741391,-4737.318029,-81665.780087
208.124104,-7254.018232,444.123565,-79980.369991
208.126668,-2664.741391,19393.395680,-74464.482406
208.129233,-7698.141797,10214.842000,-78294.959896
208.131798,5329.482782,2960.823768,-75230.577904
208.134362,-6661.853478,7846.182985,-83044.751983
208.136927,2812.782580,14211.954086,-74311.263306
208.139491,-12879.583391,9326.594869,-78141.740796
208.142056,-3256.906145,15840.407159,-75690.235202
208.144621,-296.082377,3701.029710,-80440.027290
208.147185,1628.453072,11251.130318,-78141.740796
208.149750,-18061.024985,10807.006753,-82278.656485
208.152315,-148.041188,10658.965565,-77069.207099
208.154879,-6365.771101,1628.453072,-80133.589091
208.157443,-14359.995275,29756.278868,-79214.274493
208.160007,25167.002028,3849.070898,-74004.825107
208.162571,-46632.974346,2368.659014,-84883.381178
208.165134,41895.656317,15840.407159,-68182.499322
208.167698,-37750.503042,-9030.512492,-91471.802461
208.170262,52258.539505,15100.201217,-62360.173537
208.172825,-51814.415940,-2516.700203,-95455.499051
208.175389,75501.006084,7550.100608,-63279.488135
208.177953,-36714.214723,-3849.070898,-82125.437386
208.180516,55811.528027,2516.700203,-69561.471218
208.183080,-2368.659014,-13323.706956,-84270.504780
208.185644,21910.095883,3256.906145,-68948.594820
208.188208,-6365.771101,13175.665768,-73085.510509
208.190771,10955.047942,-7846.182985,-79367.493593
208.193335,33901.432144,-7105.977043,-74924.139704
208.195899,-10362.883188,-296.082377,-79827.150892
208.198462,13619.789333,17024.736666,-74770.920605
208.201026,-3552.988522,-8882.471304,-87181.667672
208.203590,24278.754898,-4441.235652,-78448.178995
208.206153,-10510.924376,2072.576638,-81512.560987
208.208717,14804.118840,4885.359217,-79214.274493
208.211281,-2960.823768,1036.288319,-83657.628382
208.213844,18061.024985,-8290.306550,-82125.437386
208.216408,3552.988522,-296.082377,-77069.207099
208.218972,3404.947333,5773.606348,-81206.122788
208.221535,7105.977043,1184.329507,-78448.178995
208.224099,9030.512492,-11399.171507,-79520.712692
208.226663,19097.313304,-3108.864956,-80593.246390
208.229226,-18949.272115,10362.883188,-85036.600278
208.231790,7846.182985,5033.400406,-74924.139704
208.234354,3849.070898,-27535.661042,-89633.173266
208.236917,16136.489536,7994.224174,-81512.560987
208.239481,-13619.789333,5033.400406,-77222.426198
208.242045,592.164754,9326.594869,-76762.768900
208.244608,-7846.182985,7402.059420,-86722.010374
208.247172,14211.954086,-6069.688724,-83810.847481
208.249736,-17616.901420,30792.567187,-77222.426198
208.252299,-1776.494261,-2072.576638,-88867.077768
208.254863,-1924.535449,25018.960840,-68488.937521
208.257427,-19541.436869,4885.359217,-81052.903688
208.259990,12139.377449,20281.642811,-72472.634111
208.262553,-31680.814318,-17912.983796,-89939.611465
208.265117,18801.230927,20281.642811,-71706.538613
208.267680,-24426.796086,15248.242405,-85649.476676
208.270243,7105.977043,23390.507767,-71093.662214
208.272807,-7846.182985,-8142.265362,-82431.875585
208.275370,10362.883188,4589.276840,-77375.645298
208.277933,-13027.624579,15396.283594,-80899.684589
208.280496,5329.482782,5921.647536,-74158.044206
208.283060,-6069.688724,2960.823768,-81512.560987
208.285623,6809.894666,10658.965565,-79980.369991
208.288186,-11547.212695,19541.436869,-76609.549800
208.290750,296.082377,8586.388927,-78754.617194
208.293313,0.000000,11399.171507,-78141.740796
208.295876,-6661.853478,8882.471304,-81512.560987
208.298440,-2960.823768,14211.954086,-79367.493593
208.301003,-9178.553681,2664.741391,-76303.111601
208.303566,6365.771101,1332.370696,-77682.083497
208.306129,-20725.766376,25759.166782,-81359.341888
208.308693,27535.661042,6513.812290,-74617.701505
208.311256,-47669.262665,-4589.276840,-89786.392366
208.313819,40267.203245,11251.130318,-72625.853210
208.316383,-33753.390955,-5773.606348,-95915.156350
208.318946,49297.715737,19689.478057,-68182.499322
208.321509,-39526.997303,-6365.771101,-86109.133975
208.324072,81718.735997,-1628.453072,-65424.555529
208.326636,-33309.267390,5625.565159,-88100.982270
208.329199,56699.775157,8586.388927,-69408.252119
208.331762,-6513.812290,-13323.706956,-77988.521696
208.334326,19689.478057,1184.329507,-66343.870127
208.336889,-6069.688724,13027.624579,-76149.892501
208.339452,6513.812290,-3552.988522,-83044.751983
208.342016,29608.237680,-10510.924376,-77528.864398
208.344579,-6809.894666,1628.453072,-82125.437386
208.347142,9474.636058,15840.407159,-74311.263306
208.349705,-2516.700203,-4885.359217,-86875.229473
208.352269,27535.661042,-6365.771101,-80133.589091
208.354832,-14063.912898,10066.800811,-77528.864398
208.357395,22946.384202,-1036.288319,-75230.577904
208.359959,-5181.441594,-2516.700203,-83504.409282
208.362522,21614.013506,-9918.759623,-84576.942979
208.365085,-888.247130,3849.070898,-76609.549800
208.367647,7846.182985,3997.112087,-77528.864398
208.370210,6069.688724,-12435.459826,-84117.285680
208.372773,18061.024985,-3256.906145,-83810.847481
208.375336,-17468.860231,18653.189738,-81206.122788
208.377899,7402.059420,5181.441594,-73238.729609
208.380462,8586.388927,-26795.455100,-82431.875585
208.383025,2516.700203,4737.318029,-81052.903688
208.385588,17024.736666,9622.677246,-77375.645298
208.388151,-25611.125593,2072.576638,-84883.381178
208.390714,20281.642811,3404.947333,-85343.038477
208.393277,-16136.489536,2664.741391,-85955.914876
208.395840,-740.205942,21465.972318,-71093.662214
208.398403,-19689.478057,-14804.118840,-99592.414740
208.400966,-296.082377,28275.866984,-79827.150892
208.403529,-12287.418637,5773.606348,-84883.381178
208.406092,22058.137072,28275.866984,-65118.117330
208.408655,-32124.937883,-15692.365970,-93157.212557
208.411218,18653.189738,12879.583391,-70940.443115
208.413781,-26203.290347,12879.583391,-82278.656485
208.416344,888.247130,27387.619854,-73698.386908
208.418907,-4589.276840,-2220.617826,-84270.504780
208.421470,888.247130,3404.947333,-78448.178995
208.424033,-4441.235652,16284.530724,-75690.235202
208.426596,296.082377,7846.182985,-79214.274493
208.429159,-1184.329507,2368.659014,-79673.931792
208.431722,-1480.411884,10807.006753,-79520.712692
208.434284,-7698.141797,19245.354492,-74617.701505
208.436847,-7994.224174,11547.212695,-78294.959896
208.439410,7550.100608,8290.306550,-77988.521696
208.441973,-14211.954086,8586.388927,-80593.246390
208.444536,740.205942,11843.295072,-74617.701505
208.447099,-1036.288319,296.082377,-80286.808190
208.449662,-2960.823768,15840.407159,-81052.903688
208.452225,-11843.295072,25907.207970,-76149.892501
208.454788,-2368.659014,-5477.523971,-79673.931792
208.457351,-9474.636058,11399.171507,-77375.645298
208.459914,17172.777854,-1924.535449,-78294.959896
208.462477,-25611.125593,22354.219448,-68642.156621
208.465039,54035.033766,-19689.478057,-75690.235202
208.467601,-47521.221476,-888.247130,-88407.420469
208.470163,-25759.166782,-5181.441594,-87488.105872
208.472726,-6957.935855,22058.137072,-70174.347617
208.475288,17172.777854,-23982.672521,-89173.515967
208.477850,-15100.201217,-2368.659014,-89173.515967
208.480412,18949.272115,14359.995275,-80133.589091
208.482974,-16136.489536,6217.729913,-78754.617194
208.485536,20725.766376,-11399.171507,-78294.959896
208.488098,9622.677246,-9178.553681,-84730.162079
208.490661,13471.748144,11399.171507,-71246.881314
208.493223,-12731.542202,7402.059420,-76149.892501
208.495785,21910.095883,-8882.471304,-80133.589091
208.498347,2072.576638,2368.659014,-81512.560987
208.500909,4145.153275,4737.318029,-76456.330700
208.503471,3404.947333,2664.741391,-73851.606007
208.506033,13027.624579,-12879.583391,-80286.808190
208.508596,6217.729913,-296.082377,-75996.673402
208.511158,-1480.411884,-444.123565,-80746.465489
208.513720,17320.819043,-4885.359217,-83810.847481
208.516282,4293.194464,-1036.288319,-84576.942979
208.518844,740.205942,10658.965565,-76456.330700
208.521406,-1184.329507,8586.388927,-73238.729609
208.523968,13175.665768,-21169.889941,-81818.999186
208.526531,-3404.947333,7550.100608,-79214.274493
208.529093,16284.530724,7254.018232,-69867.909418
208.531655,-29608.237680,740.205942,-78448.178995
208.534217,38786.791361,296.082377,-81665.780087
208.536779,-28127.825796,11695.253884,-84883.381178
208.539341,11251.130318,11991.336260,-73391.948708
208.541903,-36418.132346,-10214.842000,-96528.032748
208.544466,12139.377449,21317.931130,-76915.987999
208.547028,-15840.407159,5181.441594,-86262.353075
208.549590,10510.924376,27239.578666,-71706.538613
208.552152,-22946.384202,-3404.947333,-85802.695776
208.554714,20725.766376,7105.977043,-73545.167808
208.557276,-20133.601622,14063.912898,-84270.504780
208.559838,-1924.535449,26795.455100,-72625.853210
208.562401,-6661.853478,-148.041188,-82278.656485
208.564963,6365.771101,740.205942,-80133.589091
208.567524,-4293.194464,13027.624579,-77375.645298
208.570086,-5477.523971,11251.130318,-81359.341888
208.572648,7402.059420,8438.347739,-83351.190182
208.575210,-1036.288319,6513.812290,-77069.207099
208.577771,-5033.400406,17764.942608,-74004.825107
208.580333,-8734.430116,12583.501014,-80440.027290
208.582895,-6809.894666,12583.501014,-81665.780087
208.585457,-2368.659014,9030.512492,-78907.836294
208.588018,-7698.141797,12583.501014,-75996.673402
208.590580,2072.576638,740.205942,-80593.246390
208.593142,-11547.212695,24426.796086,-77222.426198
208.595704,27683.702231,592.164754,-77375.645298
208.598265,-41451.532752,-5625.565159,-93463.650756
208.600827,37158.338288,15248.242405,-75230.577904
208.603389,-38786.791361,-1332.370696,-91318.583362
208.605951,42783.903448,19837.519246,-64352.021832
208.608512,-43228.027013,-6217.729913,-93003.993457
208.611074,70319.564490,-2220.617826,-62206.954438
208.613636,-39971.120868,-8586.388927,-87488.105872
208.616198,44264.315332,10066.800811,-68335.718422
208.618759,-1184.329507,-14211.954086,-78601.398095
208.621321,11103.089130,-3256.906145,-72012.976812
208.623883,-7994.224174,14063.912898,-77375.645298
208.626445,-148.041188,-444.123565,-80133.589091
208.629006,28719.990550,-8290.306550,-75537.016103
208.631568,-10955.047942,-5773.606348,-82738.313784
208.634130,20133.601622,9178.553681,-72779.072310
208.636692,-18357.107362,-740.205942,-80746.465489
208.639253,25315.043216,-2516.700203,-73238.729609
208.641815,-8734.430116,740.205942,-75843.454302
208.644377,12435.459826,4589.276840,-74311.263306
208.646939,5033.400406,-4145.153275,-81665.780087
208.649500,7105.977043,-8290.306550,-81972.218286
208.652062,4145.153275,2368.659014,-76303.111601
208.654624,8142.265362,-1480.411884,-79061.055394
208.657186,4737.318029,3997.112087,-79520.712692
208.659747,6069.688724,5773.606348,-77835.302597
208.662309,1184.329507,8586.388927,-72012.976812
208.664871,8290.306550,-25315.043216,-81818.999186
208.667433,1332.370696,9474.636058,-76456.330700
208.669965,7994.224174,7254.018232,-73085.510509
208.672498,-24870.919651,-3701.029710,-80133.589091
208.675031,37898.544230,-6957.935855,-78294.959896
208.677563,-27979.784608,22650.301825,-78294.959896
208.680096,2072.576638,23538.548956,-75537.016103
208.682628,-28719.990550,-8290.306550,-95915.156350
208.685161,6513.812290,21021.848753,-74311.263306
208.687694,-18949.272115,6513.812290,-85036.600278
208.690226,11251.130318,33309.267390,-71400.100414
208.692759,-27091.537477,-5033.400406,-89326.735067
208.695291,18209.066173,2960.823768,-74617.701505
208.697824,-10807.006753,10214.842000,-81359.341888
208.700357,-1184.329507,25907.207970,-74464.482406
208.702889,-7254.018232,1036.288319,-84270.504780
208.705422,8142.265362,2960.823768,-79827.150892
208.707954,-3701.029710,9474.636058,-79214.274493
208.710487,-13619.789333,12731.542202,-74924.139704
208.713020,0.000000,3849.070898,-79367.493593
208.715552,-4737.318029,7105.977043,-81972.218286
208.718085,-1628.453072,16580.613101,-74004.825107
208.720617,-5773.606348,13915.871710,-78448.178995
208.723150,-3849.070898,11399.171507,-79214.274493
208.725683,4293.194464,2812.782580,-77988.521696
208.728215,-740.205942,7254.018232,-77222.426198
208.730748,-4737.318029,11399.171507,-82738.313784
208.733280,-27535.661042,32124.937883,-76303.111601
208.735813,16432.571912,-6069.688724,-75077.358804
208.738346,-19541.436869,3108.864956,-81206.122788
208.740878,3404.947333,2220.617826,-81206.122788
208.743411,-22798.343014,27239.578666,-65271.336430
208.745943,44856.480085,-23242.466579,-79520.712692
208.748476,-37010.297100,-3849.070898,-90705.706963
208.751009,24426.796086,-592.164754,-82431.875585
208.753541,-27535.661042,23094.425390,-80440.027290
208.756074,33605.349767,-8142.265362,-77375.645298
208.758606,-4885.359217,-14508.036463,-80133.589091
208.761139,24574.837274,14063.912898,-78754.617194
208.763672,-21021.848753,7994.224174,-80440.027290
208.766204,22798.343014,-7698.141797,-78294.959896
208.768737,8882.471304,-9918.759623,-84730.162079
208.771246,5773.606348,6365.771101,-79673.931792
208.773756,-6217.729913,10658.965565,-76609.549800
208.776266,7698.141797,-2664.741391,-79980.369991
208.778775,7994.224174,3404.947333,-81512.560987
208.781285,740.205942,1332.370696,-79520.712692
208.783794,8438.347739,-1924.535449,-78754.617194
208.786304,15248.242405,-9770.718434,-79827.150892
208.788814,8882.471304,3997.112087,-72319.415011
208.791323,9326.594869,-1628.453072,-74464.482406
208.793833,2072.576638,3997.112087,-77682.083497
208.796342,-2960.823768,3849.070898,-77988.521696
208.798852,11251.130318,-3552.988522,-71093.662214
208.801362,7994.224174,-23538.548956,-84883.381178
208.803871,2220.617826,21021.848753,-79673.931792
208.806381,-2368.659014,4589.276840,-75690.235202
208.808890,-3701.029710,-1036.288319,-81206.122788
208.811400,1776.494261,10807.006753,-87334.886772
208.813909,-740.205942,148.041188,-85649.476676
208.816419,-24426.796086,32569.061448,-75077.358804
208.818929,-14804.118840,-10214.842000,-96221.594549
208.821438,5329.482782,19837.519246,-74311.263306
208.823948,-26499.372724,8142.265362,-85343.038477
208.826457,13619.789333,31532.773129,-71553.319513
208.828967,-32421.020260,-14804.118840,-91471.802461
208.831477,23538.548956,10510.924376,-70480.785816
208.833986,-27091.537477,10362.883188,-85496.257577
208.836496,5625.565159,27091.537477,-70634.004916
208.839005,-17024.736666,-2368.659014,-84883.381178
208.841515,8586.388927,6513.812290,-80593.246390
208.844025,-9326.594869,7994.224174,-82125.437386
208.846534,2960.823768,11695.253884,-72779.072310
208.849044,-5033.400406,6069.688724,-81818.999186
208.851553,-1480.411884,21169.889941,-75537.016103
208.854063,-9474.636058,21021.848753,-70787.224015
208.856572,-6217.729913,5477.523971,-75690.235202
208.859082,-10362.883188,10658.965565,-80899.684589
208.861592,11251.130318,-1036.288319,-80593.246390
208.864101,-444.123565,13619.789333,-74770.920605
208.866611,-27535.661042,30940.608376,-79520.712692
208.869120,24870.919651,-1924.535449,-76456.330700
208.871612,-26647.413912,1924.535449,-84117.285680
208.874103,36862.255912,7105.977043,-73851.606007
208.876595,-38934.832549,14804.118840,-83810.847481
208.879086,74020.594200,-296.082377,-67569.622924
208.881577,-59216.475360,-2516.700203,-89786.392366
208.884069,74612.758954,-3552.988522,-62513.392637
208.886560,-22502.260637,20873.807564,-83657.628382
208.889051,43079.985824,-1628.453072,-76609.549800
208.891543,-11991.336260,-19985.560434,-81206.122788
208.894034,42339.779882,-740.205942,-70021.128517
208.896526,-22650.301825,14656.077652,-84270.504780
208.899017,21021.848753,-740.205942,-79827.150892
208.901508,17616.901420,-14656.077652,-80286.808190
208.904000,2072.576638,-2220.617826,-80133.589091
208.906491,-3404.947333,10066.800811,-77528.864398
208.908982,1776.494261,2220.617826,-79367.493593
208.911474,15544.324782,2072.576638,-78294.959896
208.913965,-1184.329507,2812.782580,-76303.111601
208.916457,19245.354492,2664.741391,-72166.195912
208.918948,1924.535449,-7994.224174,-80440.027290
208.921439,23686.590144,-10214.842000,-76609.549800
208.923931,2960.823768,2072.576638,-75537.016103
208.926422,4441.235652,9918.759623,-78141.740796
208.928914,-4145.153275,-296.082377,-79367.493593
208.931405,21910.095883,-13619.789333,-77835.302597
208.933896,12731.542202,-14952.160028,-86722.010374
208.936388,4145.153275,16580.613101,-83197.971083
208.938879,-1184.329507,6365.771101,-78754.617194
208.941370,-10510.924376,-7846.182985,-84270.504780
208.943862,25167.002028,6661.853478,-79980.369991
208.946353,-7698.141797,12287.418637,-79827.150892
208.948845,-33457.308578,36566.173535,-75383.797003
208.951336,13619.789333,-8586.388927,-85802.695776
208.953827,3552.988522,15544.324782,-69867.909418
208.956319,-22502.260637,12583.501014,-83351.190182
208.958810,19837.519246,35085.761651,-68182.499322
208.961301,-37010.297100,-11103.089130,-91012.145162
208.963793,27683.702231,6513.812290,-68795.375720
208.966284,-22206.178260,6365.771101,-83657.628382
208.968776,-3849.070898,27387.619854,-74924.139704
208.971281,-13471.748144,-2664.741391,-82585.094684
208.973787,10510.924376,6957.935855,-76915.987999
208.976293,-16876.695478,8734.430116,-80286.808190
208.978798,2072.576638,8882.471304,-76456.330700
208.981304,-6069.688724,8290.306550,-82125.437386
208.983810,-6217.729913,16136.489536,-79061.055394
208.986315,-11843.295072,21762.054695,-73698.386908
208.988821,-5773.606348,6069.688724,-78754.617194
208.991327,3108.864956,296.082377,-80133.589091
208.993833,-3256.906145,4737.318029,-80746.465489
208.996338,-3404.947333,29016.072926,-72625.853210
208.998844,-10955.047942,14359.995275,-76762.768900
209.001350,-9474.636058,-6217.729913,-84883.381178
209.003855,5773.606348,10955.047942,-76303.111601
209.006361,-3552.988522,2960.823768,-76609.549800
209.008867,24574.837274,15692.365970,-72166.195912
209.011372,-26943.496289,-11991.336260,-99745.633840
209.013878,58180.187041,888.247130,-70327.566716
209.016384,-39230.914926,-13027.624579,-87641.324971
209.018889,4145.153275,27979.784608,-71093.662214
209.021395,11399.171507,-24278.754898,-92544.336158
209.023901,-1480.411884,-5181.441594,-84883.381178
209.026407,25167.002028,15396.283594,-72472.634111
209.028912,-26351.331535,2072.576638,-77988.521696
209.031418,34789.679274,-10362.883188,-76762.768900
209.033924,-5773.606348,-14359.995275,-85496.257577
209.036429,18061.024985,14656.077652,-68488.937521
209.038935,-13027.624579,3701.029710,-77069.207099
209.041441,21910.095883,-1332.370696,-75383.797003
209.043946,-1924.535449,2072.576638,-81512.560987
209.046452,740.205942,1480.411884,-78601.398095
209.048958,9326.594869,-3997.112087,-81359.341888
209.051446,13767.830521,-10362.883188,-80899.684589
209.053935,9474.636058,3108.864956,-74770.920605
209.056423,-4737.318029,8142.265362,-78141.740796
209.058911,13767.830521,4441.235652,-75690.235202
209.061400,11843.295072,-13175.665768,-80286.808190
209.063888,30052.361245,-19541.436869,-82738.313784
209.066376,-2960.823768,21465.972318,-77375.645298
209.068865,9918.759623,6217.729913,-71859.757712
209.071353,3701.029710,-15248.242405,-84576.942979
209.073841,6809.894666,13175.665768,-86415.572174
209.076330,-12583.501014,10362.883188,-86875.229473
209.078818,-15692.365970,31976.896694,-70787.224015
209.081307,-15544.324782,-16876.695478,-95302.279951
209.083795,3701.029710,19689.478057,-75230.577904
209.086283,-17764.942608,8882.471304,-87334.886772
209.088772,10807.006753,39230.914926,-69255.033019
209.091260,-29016.072926,-19541.436869,-88407.420469
209.093748,21614.013506,8142.265362,-72166.195912
209.096237,-20281.642811,11991.336260,-87488.105872
209.098725,1628.453072,25759.166782,-75996.673402
209.101213,-12139.377449,296.082377,-83504.409282
209.103702,10066.800811,10066.800811,-77222.426198
209.106190,-7994.224174,7846.182985,-78294.959896
209.108679,-4145.153275,10658.965565,-74924.139704
209.111167,-7105.977043,8438.347739,-82431.875585
209.113655,-3404.947333,18505.148550,-80133.589091
209.116144,-8438.347739,17468.860231,-75690.235202
209.118632,-6661.853478,8882.471304,-77682.083497
209.121120,9326.594869,-1480.411884,-79827.150892
209.123609,-10362.883188,5625.565159,-81052.903688
209.126097,-14952.160028,40267.203245,-73698.386908
209.128586,22650.301825,3108.864956,-76303.111601
209.131074,-16284.530724,-1036.288319,-82891.532884
209.133562,31828.855506,8290.306550,-76762.768900
209.136051,-30940.608376,24130.713709,-81206.122788
209.138539,64693.999331,-3108.864956,-68182.499322
209.141027,-44708.438897,-10066.800811,-83657.628382
209.143516,79498.118171,-3108.864956,-62666.611736
209.146004,-29016.072926,8142.265362,-82278.656485
209.148492,33753.390955,12435.459826,-68795.375720
209.150998,-5033.400406,-18357.107362,-82738.313784
209.153502,30200.402434,-3404.947333,-79673.931792
209.156006,-16728.654289,16580.613101,-81052.903688
209.158510,7698.141797,1184.329507,-78141.740796
209.161015,21910.095883,-13619.789333,-83197.971083
209.163519,10362.883188,3256.906145,-81818.999186
209.166023,5921.647536,11843.295072,-68029.280222
209.168528,-5329.482782,1924.535449,-74770.920605
209.171032,8290.306550,2960.823768,-81972.218286
209.173536,-3997.112087,3404.947333,-76915.987999
209.176041,22946.384202,-3552.988522,-74311.263306
209.178545,4885.359217,-14508.036463,-82278.656485
209.181049,19837.519246,-1036.288319,-75843.454302
209.183553,-3701.029710,9474.636058,-78754.617194
209.186058,9030.512492,8290.306550,-76915.987999
209.188562,2368.659014,-3701.029710,-75996.673402
209.191066,19689.478057,-18357.107362,-86568.791274
209.193571,1184.329507,21465.972318,-72319.415011
209.196075,-12731.542202,-2220.617826,-75996.673402
209.198579,9474.636058,-4589.276840,-84730.162079
209.201083,2960.823768,14952.160028,-84117.285680
209.203588,-8882.471304,3256.906145,-81818.999186
209.206092,-20725.766376,31384.731941,-74158.044206
209.208596,-5921.647536,-10955.047942,-96068.375449
209.211101,888.247130,17024.736666,-76149.892501
209.213605,-16728.654289,4885.359217,-83197.971083
209.216109,11103.089130,32569.061448,-72319.415011
209.218614,-26499.372724,-15840.407159,-89020.296868
209.221118,28275.866984,7105.977043,-68029.280222
209.223622,-20429.683999,9770.718434,-80746.465489
209.226126,888.247130,28423.908173,-73238.729609
209.228631,-11843.295072,-2516.700203,-86415.572174
209.231135,13471.748144,12287.418637,-76149.892501
209.233639,-2516.700203,296.082377,-77069.207099
209.236144,3701.029710,11547.212695,-79980.369991
209.238648,-12731.542202,14211.954086,-83964.066581
209.241152,-5625.565159,20133.601622,-74770.920605
209.243656,-8734.430116,10362.883188,-75230.577904
209.246161,1924.535449,1332.370696,-81359.341888
209.248665,7105.977043,1924.535449,-83810.847481
209.251183,-11843.295072,22946.384202,-77375.645298
209.253701,-9178.553681,27979.784608,-72625.853210
209.256219,-24574.837274,-9918.759623,-88867.077768
209.258737,11547.212695,11547.212695,-72166.195912
209.261255,-23094.425390,-2220.617826,-85189.819378
209.263773,7994.224174,22650.301825,-70174.347617
209.266291,-3404.947333,-22058.137072,-96528.032748
209.268809,19837.519246,-4293.194464,-82125.437386
209.271327,-19245.354492,-3997.112087,-90246.049664
209.273845,-8882.471304,28571.949361,-73698.386908
209.276363,10066.800811,-26499.372724,-87488.105872
209.278881,13915.871710,-9030.512492,-81052.903688
209.281399,18357.107362,18209.066173,-73545.167808
209.283917,-14063.912898,9918.759623,-74004.825107
209.286435,30940.608376,-10066.800811,-72472.634111
209.288953,592.164754,-16728.654289,-86109.133975
209.291471,14359.995275,9030.512492,-76609.549800
209.293989,-17764.942608,1332.370696,-83810.847481
209.296507,19245.354492,7254.018232,-75383.797003
209.299025,-8142.265362,-3404.947333,-85496.257577
209.301543,14359.995275,-2812.782580,-74770.920605
209.304061,10066.800811,-16432.571912,-84270.504780
209.306578,4441.235652,-2812.782580,-87181.667672
209.309096,13027.624579,5921.647536,-79367.493593
209.311614,-24278.754898,11843.295072,-80440.027290
209.314132,23242.466579,-7402.059420,-75996.673402
209.316650,18801.230927,-22650.301825,-88560.639569
209.319168,8586.388927,26499.372724,-73545.167808
209.321686,-2220.617826,1776.494261,-74004.825107
209.324204,-6661.853478,-11843.295072,-78448.178995
209.326722,35825.967593,-13619.789333,-85496.257577
209.329240,-14211.954086,25167.002028,-83964.066581
209.331758,3997.112087,21614.013506,-73085.510509
209.334276,-23834.631332,-16876.695478,-89633.173266
209.336794,24574.837274,19245.354492,-75843.454302
209.339312,-24426.796086,6069.688724,-89633.173266
209.341830,23094.425390,40563.285622,-65577.774629
209.344348,-44856.480085,-11251.130318,-93310.431656
209.346866,35974.008781,3108.864956,-73545.167808
209.349384,-18357.107362,8290.306550,-87488.105872
209.351914,592.164754,28423.908173,-70174.347617
209.354443,-10066.800811,-888.247130,-82891.532884
209.356973,6365.771101,5625.565159,-81972.218286
209.359502,-7254.018232,3404.947333,-84883.381178
209.362032,-1480.411884,13175.665768,-74924.139704
209.364562,-9918.759623,11695.253884,-81665.780087
209.367091,-5033.400406,21762.054695,-78448.178995
209.369621,-3997.112087,13471.748144,-75996.673402
209.372150,-5921.647536,2516.700203,-80440.027290
209.374680,6217.729913,2960.823768,-79520.712692
209.377210,-26203.290347,25018.960840,-76762.768900
209.379739,14952.160028,11991.336260,-75996.673402
209.382269,-29608.237680,-5921.647536,-89173.515967
209.384798,23094.425390,12287.418637,-67263.184724
209.387328,-35381.844028,-5477.523971,-87028.448573
209.389858,27239.578666,24426.796086,-68335.718422
209.392387,-33013.185013,-17320.819043,-99745.633840
209.394917,55367.404462,-7550.100608,-68029.280222
209.397446,-39082.873738,-10658.965565,-91778.240660
209.399976,28571.949361,27831.743419,-71093.662214
209.402506,18505.148550,-26351.331535,-79980.369991
209.405035,5625.565159,-11547.212695,-76149.892501
209.407565,18357.107362,17616.901420,-72166.195912
209.410094,-23982.672521,8142.265362,-79980.369991
209.412624,31236.690752,-9770.718434,-74158.044206
209.415153,-5033.400406,-20873.807564,-90246.049664
209.417683,20873.807564,17024.736666,-73851.606007
209.420213,-25018.960840,-2664.741391,-85189.819378
209.422742,28868.031738,6217.729913,-79520.712692
209.425272,-7254.018232,-1184.329507,-86722.010374
209.427801,21169.889941,-740.205942,-69101.813920
209.430331,9178.553681,-15248.242405,-79827.150892
209.432861,10510.924376,-444.123565,-81818.999186
209.435390,9622.677246,13027.624579,-75537.016103
209.437920,3701.029710,148.041188,-78907.836294
209.440449,25167.002028,-26499.372724,-83504.409282
209.442979,-3997.112087,5625.565159,-78448.178995
209.445509,6957.935855,20873.807564,-67416.403824
209.448038,-29608.237680,-1480.411884,-81972.218286
209.450568,38194.626607,-1036.288319,-73698.386908
209.453097,-46336.891969,29460.196492,-75690.235202
209.455627,40267.203245,1332.370696,-75383.797003
209.458157,-51370.292375,30496.484810,-77528.864398
209.460686,22206.178260,9622.677246,-66956.746525
209.463216,444.123565,-3552.988522,-79827.150892
209.465745,-6809.894666,32865.143825,-77835.302597
209.468275,-10658.965565,19097.313304,-71553.319513
209.470805,-6661.853478,-11103.089130,-72932.291410
209.473316,16284.530724,5773.606348,-77528.864398
209.475827,-10214.842000,11843.295072,-83197.971083
209.478338,-4293.194464,23982.672521,-72166.195912
209.480849,-11547.212695,-1924.535449,-78141.740796
209.483360,13323.706956,8586.388927,-75077.358804
209.485871,-19689.478057,8142.265362,-75843.454302
209.488382,3256.906145,15544.324782,-76303.111601
209.490893,-18209.066173,14359.995275,-87028.448573
209.493404,3701.029710,19985.560434,-71400.100414
209.495916,-6069.688724,2664.741391,-74311.263306
209.498427,2516.700203,-444.123565,-80746.465489
209.500938,-15396.283594,22206.178260,-83044.751983
209.503449,9178.553681,17912.983796,-71246.881314
209.505960,-20873.807564,-10955.047942,-87947.763170
209.508471,11547.212695,9474.636058,-74924.139704
209.510982,-16432.571912,-888.247130,-81818.999186
209.513493,14508.036463,21169.889941,-68795.375720
209.516004,-14656.077652,-18209.066173,-99439.195640
209.518516,37750.503042,-11843.295072,-75230.577904
209.521027,-37750.503042,-4293.194464,-88867.077768
209.523538,31828.855506,32569.061448,-69101.813920
209.526049,11991.336260,-30496.484810,-84117.285680
209.528560,14063.912898,-8586.388927,-73545.167808
209.531071,17616.901420,14656.077652,-73698.386908
209.533582,-15988.448347,10066.800811,-76456.330700
209.536093,16136.489536,-148.041188,-72779.072310
209.538604,4737.318029,-16136.489536,-87028.448573
209.541116,22650.301825,12731.542202,-74004.825107
209.543627,-7994.224174,-1184.329507,-77375.645298
209.546138,19541.436869,6809.894666,-75537.016103
209.548649,-4293.194464,-14359.995275,-89326.735067
209.551160,24130.713709,-444.123565,-72625.853210
209.553683,4589.276840,-10955.047942,-80286.808190
209.556207,7994.224174,4885.359217,-81818.999186
209.558730,-9030.512492,11695.253884,-78754.617194
209.561254,4441.235652,-2812.782580,-73698.386908
209.563777,10658.965565,-24574.837274,-91165.364262
209.566301,5921.647536,17024.736666,-83504.409282
209.568824,9178.553681,12287.418637,-74158.044206
209.571348,-15988.448347,-8438.347739,-82891.532884
209.573871,51074.209998,-8290.306550,-75690.235202
209.576395,-46188.850781,31384.731941,-73238.729609
209.578918,28275.866984,5625.565159,-69408.252119
209.581442,-48113.386230,-3256.906145,-91931.459760
209.583965,17616.901420,19837.519246,-67263.184724
209.586489,-14359.995275,1628.453072,-84730.162079
209.589012,21614.013506,40119.162056,-68488.937521
209.591536,-48557.509795,-1184.329507,-87181.667672
209.594059,35974.008781,-3404.947333,-69408.252119
209.596583,-16136.489536,4441.235652,-89326.735067
209.599106,1480.411884,25759.166782,-74924.139704
209.601630,-13619.789333,6365.771101,-76609.549800
209.604153,8290.306550,5773.606348,-79980.369991
209.606676,-17764.942608,9474.636058,-85955.914876
209.609200,-4589.276840,18357.107362,-69867.909418
209.611723,-15248.242405,9622.677246,-81972.218286
209.614247,-5477.523971,21317.931130,-79980.369991
209.616770,6069.688724,3997.112087,-76149.892501
209.619294,0.000000,1184.329507,-77069.207099
209.621817,-12731.542202,22058.137072,-79061.055394
209.624341,1924.535449,22058.137072,-70327.566716
209.626864,-29016.072926,-4885.359217,-87028.448573
209.629388,8142.265362,13915.871710,-76762.768900
209.631911,-21910.095883,-4293.194464,-85189.819378
209.634435,-4885.359217,32569.061448,-63585.926334
209.636958,4589.276840,-24130.713709,-94076.527154
209.639482,13027.624579,-8586.388927,-80440.027290
209.642005,-26351.331535,-2664.741391,-83964.066581
209.644529,-14804.118840,22354.219448,-75690.235202
209.647052,15100.201217,-24870.919651,-90858.926063
209.649576,4589.276840,-11399.171507,-82125.437386
209.652099,27535.661042,11399.171507,-73851.606007
209.654634,-31976.896694,13471.748144,-80746.465489
209.657168,31236.690752,1332.370696,-68029.280222
209.659703,4737.318029,-15396.283594,-83504.409282
209.662237,22058.137072,11547.212695,-71400.100414
209.664772,-7846.182985,-2072.576638,-73851.606007
209.667306,27683.702231,3849.070898,-75996.673402
209.669841,2220.617826,-6809.894666,-83810.847481
209.672375,17912.983796,-4885.359217,-70480.785816
209.674910,8438.347739,-8438.347739,-77835.302597
209.677444,2368.659014,5181.441594,-83810.847481
209.679979,3701.029710,11695.253884,-75843.454302
209.682514,18801.230927,-17764.942608,-75690.235202
209.685048,18357.107362,-15396.283594,-82738.313784
209.687583,-6217.729913,18061.024985,-78754.617194
209.690117,13323.706956,1776.494261,-71859.757712
209.692652,-2960.823768,-10362.883188,-89173.515967
209.695186,18209.066173,8290.306550,-85496.257577
209.697721,-10955.047942,12287.418637,-78601.398095
209.700255,-17468.860231,29016.072926,-72166.195912
209.702790,-9178.553681,-11399.171507,-98060.223744
209.705324,11103.089130,19097.313304,-74004.825107
209.707859,-21910.095883,6809.894666,-83351.190182
209.710393,13619.789333,34345.555709,-74464.482406
209.712928,-29164.114115,-9770.718434,-91471.802461
209.715463,27091.537477,3997.112087,-73851.606007
209.717997,-11547.212695,6809.894666,-87488.105872
209.720532,-1184.329507,30348.443622,-71246.881314
209.723066,-13323.706956,-1776.494261,-80133.589091
209.725601,11843.295072,6809.894666,-79980.369991
209.728135,-9474.636058,3849.070898,-86875.229473
209.730670,-7254.018232,18653.189738,-69867.909418
209.733204,-7846.182985,9918.759623,-83197.971083
209.735739,592.164754,16876.695478,-83044.751983
209.738273,6513.812290,4145.153275,-78601.398095
209.740808,888.247130,7254.018232,-79520.712692
209.743342,-28423.908173,36714.214723,-81359.341888
209.745877,22798.343014,4441.235652,-74311.263306
209.748412,-26943.496289,-1776.494261,-81665.780087
209.750946,23242.466579,9474.636058,-77988.521696
209.753481,-36862.255912,13767.830521,-86568.791274
209.756024,76241.212026,-3701.029710,-71093.662214
209.758568,-60548.846056,-3997.112087,-92391.117059
209.761112,93562.031069,-2368.659014,-60061.887043
209.763656,-34937.720462,0.000000,-83504.409282
209.766199,36862.255912,24278.754898,-69867.909418
209.768743,25167.002028,-26055.249158,-80286.808190
209.771287,20133.601622,-6957.935855,-76456.330700
209.773831,-14804.118840,19393.395680,-81206.122788
209.776374,888.247130,-592.164754,-82891.532884
209.778918,11843.295072,-5921.647536,-78294.959896
209.781462,13471.748144,-11843.295072,-84270.504780
209.784006,15692.365970,14063.912898,-76609.549800
209.786550,-11843.295072,-148.041188,-81052.903688
209.789093,15248.242405,4293.194464,-76762.768900
209.791637,8586.388927,-13619.789333,-82278.656485
209.794181,15396.283594,-3404.947333,-75077.358804
209.796725,-5773.606348,-296.082377,-84423.723880
209.799268,4145.153275,13619.789333,-78141.740796
209.801812,5921.647536,-10955.047942,-79520.712692
209.804356,18653.189738,-25611.125593,-82738.313784
209.806900,-6069.688724,17172.777854,-81052.903688
209.809443,6661.853478,9918.759623,-75077.358804
209.811987,-13767.830521,-13619.789333,-83657.628382
209.814531,46188.850781,-10807.006753,-85802.695776
209.817075,-44264.315332,30348.443622,-84117.285680
209.819618,14656.077652,13915.871710,-72779.072310
209.822162,-34049.473332,-15396.283594,-95455.499051
209.824706,24574.837274,20429.683999,-73851.606007
209.827250,-2812.782580,-888.247130,-84730.162079
209.829793,1628.453072,41451.532752,-68642.156621
209.832337,-37898.544230,-5033.400406,-92237.897959
209.834881,37898.544230,1184.329507,-72932.291410
209.837425,-15100.201217,4737.318029,-88867.077768
209.839969,-3701.029710,28127.825796,-72932.291410
209.842512,-7846.182985,1332.370696,-79061.055394
209.845056,2516.700203,8290.306550,-78141.740796
209.847600,296.082377,7994.224174,-83197.971083
209.850144,-14508.036463,15248.242405,-76762.768900
209.852687,-6069.688724,14359.995275,-76303.111601
209.855231,-5773.606348,14656.077652,-81206.122788
209.857783,8586.388927,5773.606348,-73851.606007
209.860334,-8734.430116,6217.729913,-77069.207099
209.862886,-30496.484810,34197.514520,-80746.465489
209.865437,21021.848753,-3849.070898,-84270.504780
209.867989,-25167.002028,4737.318029,-84117.285680
209.870540,23094.425390,9622.677246,-73851.606007
209.873092,-38194.626607,3404.947333,-90705.706963
209.875643,82755.024316,-16728.654289,-70021.128517
209.878195,-67062.658345,-8882.471304,-88254.201370
209.880746,74168.635388,-296.082377,-68948.594820
209.883297,-25759.166782,10658.965565,-85496.257577
209.885849,41007.409187,18949.272115,-66343.870127
209.888400,14211.954086,-28127.825796,-76149.892501
209.890952,33161.226202,-7550.100608,-73545.167808
209.893503,3701.029710,24130.713709,-72472.634111
209.896055,10807.006753,-3552.988522,-79980.369991
209.898606,10362.883188,-10214.842000,-84883.381178
209.901158,5773.606348,-4293.194464,-89786.392366
209.903709,1332.370696,17764.942608,-80133.589091
209.906261,1184.329507,-4737.318029,-79673.931792
209.908812,17468.860231,-1036.288319,-75383.797003
209.911364,9326.594869,-12287.418637,-83044.751983
209.913915,14359.995275,4293.194464,-75537.016103
209.916467,-9918.759623,0.000000,-81818.999186
209.919018,17616.901420,5773.606348,-77682.083497
209.921570,22206.178260,-19689.478057,-81512.560987
209.924121,10510.924376,444.123565,-75383.797003
209.926673,-12731.542202,18209.066173,-74617.701505
209.929224,1924.535449,-740.205942,-75537.016103
209.931776,1480.411884,-11695.253884,-89173.515967
209.934327,-2664.741391,7994.224174,-88560.639569
209.936879,11991.336260,9326.594869,-76915.987999
209.939430,-37158.338288,28868.031738,-73851.606007
209.941982,11991.336260,-6513.812290,-81206.122788
209.944533,10066.800811,7846.182985,-73238.729609
209.947085,-25463.084405,15248.242405,-85802.695776
209.949636,12435.459826,34789.679274,-74004.825107
209.952188,-30940.608376,-9178.553681,-91778.240660
209.954739,30052.361245,4441.235652,-74004.825107
209.957291,-8438.347739,10066.800811,-80593.246390
209.959849,-9474.636058,24574.837274,-71706.538613
209.962407,-10807.006753,296.082377,-80899.684589
209.964965,11251.130318,7994.224174,-80746.465489
209.967524,-15100.201217,11103.089130,-79061.055394
209.970082,-13027.624579,22798.343014,-70480.785816
209.972640,-10066.800811,10066.800811,-82891.532884
209.975198,7698.141797,5033.400406,-82125.437386
209.977757,-1776.494261,4885.359217,-78601.398095
209.980315,-20281.642811,34937.720462,-75690.235202
209.982873,22946.384202,1628.453072,-77835.302597
209.985431,-26943.496289,-3997.112087,-85649.476676
209.987990,31236.690752,15248.242405,-69867.909418
209.990548,-34493.596897,-3404.947333,-91778.240660
209.993106,36862.255912,19541.436869,-66650.308326
209.995664,-37010.297100,-14952.160028,-94536.184453
209.998223,69727.399736,-3997.112087,-67416.403824
210.000781,-39823.079680,-4145.153275,-86415.572174
210.003339,32124.937883,28571.949361,-68335.718422
210.005897,11547.212695,-26943.496289,-84730.162079
210.008455,15100.201217,-13175.665768,-78294.959896
210.011014,12435.459826,19985.560434,-70940.443115
210.013572,-16876.695478,5329.482782,-76915.987999
210.016130,21762.054695,2516.700203,-71706.538613
210.018688,9326.594869,-15692.365970,-86568.791274
210.021247,-8586.388927,16432.571912,-77069.207099
210.023805,4737.318029,-6069.688724,-80746.465489
210.026363,17320.819043,-8142.265362,-83657.628382
210.028921,8882.471304,-7550.100608,-84883.381178
210.031480,9326.594869,6661.853478,-75383.797003
210.034038,-10807.006753,2812.782580,-83810.847481
210.036596,12879.583391,7254.018232,-78754.617194
210.039154,26055.249158,-24278.754898,-82585.094684
210.041712,3849.070898,14359.995275,-75690.235202
210.044271,-4589.276840,7105.977043,-78141.740796
210.046829,-6661.853478,-8882.471304,-78907.836294
210.049387,45152.562462,-8438.347739,-76609.549800
210.051945,-46929.056723,36566.173535,-75996.673402
210.054504,40267.203245,3849.070898,-69408.252119
210.057062,-51222.251186,9918.759623,-79827.150892
210.059620,34049.473332,7994.224174,-69714.690318
210.062183,-4737.318029,-8290.306550,-85189.819378
210.064747,2220.617826,41747.615129,-71246.881314
210.067310,-41451.532752,17024.736666,-83197.971083
210.069873,22206.178260,-2220.617826,-69408.252119
210.072436,-5033.400406,444.123565,-79980.369991
210.075000,-1776.494261,16284.530724,-76609.549800
210.077563,-7550.100608,16136.489536,-75690.235202
210.080126,-6365.771101,444.123565,-77375.645298
210.082689,5033.400406,8882.471304,-82278.656485
210.085253,-17024.736666,19985.560434,-78141.740796
210.087816,-1184.329507,14063.912898,-77069.207099
210.090379,-4589.276840,6069.688724,-85496.257577
210.092942,9622.677246,9178.553681,-77835.302597
210.095506,-12139.377449,15988.448347,-76915.987999
210.098069,-11251.130318,29016.072926,-73085.510509
210.100632,-5921.647536,-5625.565159,-87028.448573
210.103195,15692.365970,18949.272115,-67263.184724
210.105759,-13915.871710,-7402.059420,-83657.628382
210.108322,-7698.141797,30496.484810,-64658.460031
210.110885,23686.590144,-25018.960840,-85343.038477
210.113448,-5033.400406,-2072.576638,-78907.836294
210.116012,-6661.853478,-2960.823768,-85189.819378
210.118575,-10807.006753,17320.819043,-77375.645298
210.121138,16728.654289,-5033.400406,-76303.111601
210.123701,-12583.501014,-12879.583391,-84883.381178
210.126265,36566.173535,4737.318029,-76609.549800
210.128828,-31680.814318,10362.883188,-79520.712692
210.131391,18653.189738,3552.988522,-70174.347617
210.133954,3997.112087,-14508.036463,-83657.628382
210.136518,12435.459826,10214.842000,-74311.263306
210.139081,-6513.812290,3108.864956,-73238.729609
210.141644,15692.365970,-1332.370696,-72625.853210
210.144207,18949.272115,-12287.418637,-81818.999186
210.146771,8882.471304,-296.082377,-77988.521696
210.149334,-1776.494261,7698.141797,-79673.931792
210.151897,1332.370696,5773.606348,-82738.313784
210.154460,46484.933158,-15248.242405,-75996.673402
210.157023,-9474.636058,-2072.576638,-78601.398095
210.159587,10362.883188,15248.242405,-71093.662214
210.162150,-15248.242405,-3552.988522,-85036.600278
210.164719,7550.100608,-4293.194464,-87334.886772
210.167286,-39823.079680,22354.219448,-82891.532884
210.169854,26795.455100,8290.306550,-79520.712692
210.172422,-45300.603650,31680.814318,-75383.797003
210.174990,16432.571912,-3108.864956,-77835.302597
210.177557,3552.988522,14211.954086,-68795.375720
210.180125,-29904.320057,11991.336260,-84730.162079
210.182693,21910.095883,32865.143825,-68948.594820
210.185261,-42931.944636,-10066.800811,-91012.145162
210.187828,15396.283594,10807.006753,-74770.920605
210.190396,-6809.894666,7550.100608,-81359.341888
210.192964,-3997.112087,23538.548956,-69101.813920
210.195532,-10955.047942,-6957.935855,-80286.808190
210.198100,7254.018232,14804.118840,-78141.740796
210.200667,-12435.459826,11843.295072,-79827.150892
210.203235,-11843.295072,20429.683999,-71246.881314
210.205803,-6957.935855,6513.812290,-81206.122788
210.208371,11399.171507,3701.029710,-80286.808190
210.210938,-24278.754898,21317.931130,-80899.684589
210.213506,4885.359217,16580.613101,-76303.111601
210.216074,-22502.260637,-2812.782580,-90092.830565
210.218642,-740.205942,15248.242405,-77069.207099
210.221209,3701.029710,-2220.617826,-82738.313784
210.223777,-31384.731941,37010.297100,-73085.510509
210.226345,48557.509795,-26499.372724,-81818.999186
210.228913,35825.967593,-4293.194464,-75537.016103
210.231480,-37750.503042,740.205942,-94229.746254
210.234048,1628.453072,21021.848753,-73391.948708
210.236616,16432.571912,-18357.107362,-76609.549800
210.239184,-9474.636058,-14656.077652,-81665.780087
210.241751,39971.120868,4737.318029,-78448.178995
210.244319,-32124.937883,9770.718434,-85496.257577
210.246887,11399.171507,2072.576638,-72012.976812
210.249455,7550.100608,-15544.324782,-88407.420469
210.252022,25315.043216,10807.006753,-74004.825107
210.254590,-9622.677246,-3849.070898,-76762.768900
210.257158,17024.736666,1480.411884,-76609.549800
210.259726,17320.819043,-11251.130318,-87641.324971
210.262293,3404.947333,-2664.741391,-77988.521696
210.264861,-7105.977043,4441.235652,-76915.987999
210.267432,592.164754,888.247130,-82585.094684
210.270003,31236.690752,-19097.313304,-80746.465489
210.272574,-11399.171507,10214.842000,-79367.493593
210.275145,12435.459826,10807.006753,-70787.224015
210.277716,-21465.972318,-7105.977043,-80286.808190
210.280286,45448.644839,148.041188,-69561.471218
210.282857,-52850.704259,39526.997303,-76609.549800
210.285428,38194.626607,3108.864956,-73085.510509
210.287999,-49297.715737,15840.407159,-74617.701505
210.290570,21317.931130,4737.318029,-72932.291410
210.293141,0.000000,-3997.112087,-87641.324971
210.295712,-4145.153275,34641.638086,-74004.825107
210.298282,-29460.196492,17912.983796,-79980.369991
210.300853,10066.800811,-3997.112087,-73698.386908
210.303424,-296.082377,5625.565159,-77835.302597
210.305995,-7254.018232,13175.665768,-76149.892501
210.308566,-740.205942,10510.924376,-74770.920605
210.311137,-18949.272115,2664.741391,-81206.122788
210.313708,7550.100608,13767.830521,-78601.398095
210.316279,-22502.260637,17616.901420,-76456.330700
210.318849,-2664.741391,15248.242405,-75230.577904
210.321420,-4589.276840,4885.359217,-82585.094684
210.323991,7402.059420,10658.965565,-77069.207099
210.326562,-25759.166782,26647.413912,-77222.426198
210.329133,21465.972318,296.082377,-77835.302597
210.331704,-27683.702231,4885.359217,-87794.544071
210.334275,22502.260637,11695.253884,-72779.072310
210.336846,-28423.908173,16728.654289,-81206.122788
210.339416,80386.365301,-17616.901420,-72166.195912
210.341987,-62917.505070,-2664.741391,-89479.954166
210.344558,86604.095214,2812.782580,-66803.527426
210.347129,-22946.384202,592.164754,-89326.735067
210.349700,23094.425390,20133.601622,-72932.291410
210.352271,25759.166782,-27239.578666,-74924.139704
210.354842,41599.573940,-9178.553681,-81206.122788
210.357413,-9178.553681,19689.478057,-79061.055394
210.359983,16876.695478,-1184.329507,-73698.386908
210.362554,18949.272115,-6661.853478,-77835.302597
210.365125,8882.471304,-2072.576638,-83197.971083
210.367696,6365.771101,8142.265362,-76915.987999
210.370270,-5181.441594,1480.411884,-75077.358804
210.372843,29312.155303,-11399.171507,-80899.684589
210.375417,1480.411884,-3108.864956,-81818.999186
210.377990,-1480.411884,7254.018232,-74464.482406
210.380564,-8438.347739,2072.576638,-80286.808190
210.383138,31532.773129,-23538.548956,-83197.971083
210.385711,-8290.306550,3849.070898,-81972.218286
210.388285,9474.636058,14952.160028,-72319.415011
210.390858,-13175.665768,-1036.288319,-79520.712692
210.393432,20725.766376,888.247130,-76303.111601
210.396006,-56403.692780,38786.791361,-74617.701505
210.398579,45300.603650,-1184.329507,-71553.319513
210.401153,-55367.404462,13767.830521,-77222.426198
210.403726,22354.219448,6809.894666,-69714.690318
210.406300,5033.400406,1332.370696,-75996.673402
210.408874,-21169.889941,22206.178260,-81206.122788
210.411447,5329.482782,23686.590144,-74311.263306
210.414021,-11251.130318,-5625.565159,-83351.190182
210.416594,14063.912898,3108.864956,-80899.684589
210.419168,-5329.482782,16728.654289,-77375.645298
210.421741,-2664.741391,12139.377449,-76609.549800
210.424315,-12287.418637,1184.329507,-79827.150892
210.426889,14508.036463,6513.812290,-79214.274493
210.429462,-21169.889941,20873.807564,-77988.521696
210.432036,1628.453072,16136.489536,-75996.673402
210.434609,-9474.636058,6513.812290,-84117.285680
210.437183,-4293.194464,17468.860231,-77988.521696
210.439757,-6069.688724,17024.736666,-76456.330700
210.442330,-16284.530724,-1776.494261,-83504.409282
210.444904,-7846.182985,17616.901420,-79520.712692
210.447477,9030.512492,3108.864956,-78448.178995
210.450051,-15100.201217,23094.425390,-70634.004916
210.452625,42487.821071,-31384.731941,-83810.847481
210.455198,-22798.343014,-2368.659014,-82431.875585
210.457772,9770.718434,4145.153275,-81206.122788
210.460345,3701.029710,15100.201217,-76915.987999
210.462919,13027.624579,-19097.313304,-81665.780087
210.465493,-7402.059420,-10214.842000,-83964.066581
210.468066,32272.979071,2368.659014,-77835.302597
210.470640,-24426.796086,9622.677246,-79367.493593
210.473187,11547.212695,592.164754,-72012.976812
210.475734,9474.636058,-12435.459826,-85343.038477
210.478280,11103.089130,9030.512492,-80133.589091
210.480827,3849.070898,-1332.370696,-74464.482406
210.483374,16580.613101,-3701.029710,-80286.808190
210.485921,13323.706956,-7994.224174,-86109.133975
210.488468,592.164754,3108.864956,-76149.892501
210.491015,5477.523971,3849.070898,-76149.892501
210.493562,14063.912898,-7846.182985,-83964.066581
210.496108,20725.766376,-9178.553681,-81972.218286
210.498655,-9178.553681,15248.242405,-73238.729609
210.501202,20133.601622,-6513.812290,-71706.538613
210.503749,-13915.871710,-4145.153275,-91778.240660
210.506296,14508.036463,10066.800811,-85496.257577
210.508843,-11547.212695,13027.624579,-88254.201370
210.511390,-16432.571912,32865.143825,-78754.617194
210.513937,-1628.453072,-12435.459826,-88254.201370
210.516483,10066.800811,22946.384202,-66956.746525
210.519030,-21614.013506,6365.771101,-88100.982270
210.521577,25167.002028,35529.885216,-68795.375720
210.524124,-39230.914926,-7402.059420,-86568.791274
210.526671,22798.343014,13915.871710,-75690.235202
210.529218,-6513.812290,5181.441594,-87334.886772
210.531765,-9030.512492,21021.848753,-71246.881314
210.534311,-13175.665768,-2072.576638,-80133.589091
210.536858,8734.430116,10510.924376,-83044.751983
210.539405,-11695.253884,16728.654289,-82738.313784
210.541952,-10658.965565,16284.530724,-75383.797003
210.544499,-2960.823768,2960.823768,-82278.656485
210.547046,-8586.388927,17764.942608,-78141.740796
210.549593,3108.864956,21910.095883,-68182.499322
210.552140,-1480.411884,-6069.688724,-79214.274493
210.554686,-18505.148550,11695.253884,-84270.504780
210.557233,12879.583391,11695.253884,-76149.892501
210.559780,-23686.590144,13175.665768,-80133.589091
210.562327,75797.088461,-13619.789333,-71859.757712
210.564874,-62769.463882,-2220.617826,-88713.858668
210.567421,50630.086433,8734.430116,-67876.061123
210.569968,-7254.018232,740.205942,-76456.330700
210.572514,26499.372724,5033.400406,-69101.813920
210.575068,15248.242405,-21465.972318,-76915.987999
210.577622,38638.750172,-8290.306550,-77835.302597
210.580176,-10214.842000,17172.777854,-79214.274493
210.582729,9622.677246,-888.247130,-73238.729609
210.585283,17320.819043,-7254.018232,-75537.016103
210.587837,3849.070898,9474.636058,-83197.971083
210.590391,5921.647536,2072.576638,-72779.072310
210.592944,4441.235652,-4441.235652,-74464.482406
210.595498,23834.631332,-10214.842000,-87641.324971
210.598052,-592.164754,444.123565,-84576.942979
210.600606,6957.935855,6217.729913,-73391.948708
210.603159,5625.565159,-6809.894666,-79214.274493
210.605713,17764.942608,-13915.871710,-84730.162079
210.608267,-4885.359217,14063.912898,-74158.044206
210.610821,22650.301825,-10658.965565,-74770.920605
210.613374,-20429.683999,-6809.894666,-92850.774358
210.615928,31236.690752,148.041188,-85649.476676
210.618482,-28571.949361,19245.354492,-84576.942979
210.621036,-1480.411884,22798.343014,-76762.768900
210.623589,-19245.354492,-14063.912898,-94536.184453
210.626143,9326.594869,28571.949361,-70327.566716
210.628697,-29460.196492,12139.377449,-87641.324971
210.631251,28127.825796,30644.525999,-67569.622924
210.633804,-45892.768404,-3108.864956,-84423.723880
210.636358,29460.196492,7254.018232,-71859.757712
210.638912,-9178.553681,2516.700203,-89939.611465
210.641466,-9178.553681,26203.290347,-73698.386908
210.644019,-1776.494261,-6513.812290,-80440.027290
210.646573,1184.329507,10955.047942,-82431.875585
210.649127,-25315.043216,22798.343014,-75537.016103
210.651681,-9770.718434,17764.942608,-72319.415011
210.654234,0.000000,2072.576638,-84576.942979
210.656794,-19245.354492,18061.024985,-86875.229473
210.659353,7698.141797,18061.024985,-73391.948708
210.661913,-9918.759623,-6217.729913,-85649.476676
210.664472,-16284.530724,20133.601622,-83657.628382
210.667032,15840.407159,7994.224174,-76762.768900
210.669591,-12139.377449,26351.331535,-67722.842023
210.672151,52258.539505,-30348.443622,-85496.257577
210.674710,-22502.260637,-592.164754,-80133.589091
210.677270,13767.830521,8142.265362,-68182.499322
210.679829,8438.347739,8586.388927,-71706.538613
210.682389,31828.855506,-2812.782580,-71093.662214
210.684948,2664.741391,-19097.313304,-78448.178995
210.687508,48409.468607,-5477.523971,-76609.549800
210.690068,-24278.754898,15988.448347,-84883.381178
210.692627,12731.542202,3997.112087,-72625.853210
210.695187,11991.336260,-17172.777854,-86568.791274
210.697746,8586.388927,7254.018232,-85036.600278
210.700306,6513.812290,444.123565,-77222.426198
210.702865,11103.089130,-8882.471304,-79980.369991
210.705425,17616.901420,-12435.459826,-89173.515967
210.707984,2812.782580,4589.276840,-78294.959896
210.710544,10510.924376,7402.059420,-71093.662214
210.713103,6957.935855,-20429.683999,-87947.763170
210.715663,2664.741391,5773.606348,-82585.094684
210.718222,1628.453072,8290.306550,-72012.976812
210.720782,-3997.112087,-444.123565,-75230.577904
210.723341,25611.125593,-148.041188,-75537.016103
210.725901,-47669.262665,32124.937883,-74158.044206
210.728460,36566.173535,1628.453072,-73391.948708
210.731020,-42931.944636,20133.601622,-81818.999186
210.733579,20873.807564,19985.560434,-66650.308326
210.736139,-1184.329507,-2516.700203,-77069.207099
210.738698,-11991.336260,29904.320057,-76915.987999
210.741258,-18505.148550,17320.819043,-77682.083497
210.743817,1628.453072,-444.123565,-72625.853210
210.746377,2072.576638,6957.935855,-81359.341888
210.748936,-5033.400406,11399.171507,-82891.532884
210.751496,2516.700203,12731.542202,-71553.319513
210.754055,-15988.448347,8882.471304,-78294.959896
210.756615,5181.441594,14656.077652,-81665.780087
210.759174,-22354.219448,18801.230927,-75690.235202
210.761734,2368.659014,14211.954086,-72472.634111
210.764293,-11399.171507,9770.718434,-81818.999186
210.766853,1332.370696,22650.301825,-71093.662214
210.769412,10362.883188,-6217.729913,-75843.454302
210.771972,-23686.590144,12583.501014,-85649.476676
210.774532,5773.606348,8734.430116,-77528.864398
210.777091,-20725.766376,17024.736666,-77528.864398
210.779655,86456.054026,-17616.901420,-74770.920605
210.782219,-65878.328838,-2220.617826,-92850.774358
210.784784,84383.477388,7846.182985,-55924.971354
210.787348,-34789.679274,-5181.441594,-86722.010374
210.789912,41155.450375,19985.560434,-72166.195912
210.792476,11695.253884,-23538.548956,-77069.207099
210.795041,46188.850781,-10955.047942,-78448.178995
210.797605,-16728.654289,16728.654289,-86875.229473
210.800169,12583.501014,3701.029710,-74464.482406
210.802733,16728.654289,-7254.018232,-71400.100414
210.805297,3108.864956,148.041188,-81665.780087
210.807862,15988.448347,3552.988522,-77988.521696
210.810426,-4145.153275,-2664.741391,-76149.892501
210.812990,34493.596897,-11991.336260,-79520.712692
210.815554,9178.553681,-2368.659014,-83964.066581
210.818118,12139.377449,3256.906145,-72319.415011
210.820683,-444.123565,-15248.242405,-84117.285680
210.823247,21317.931130,2664.741391,-82431.875585
210.825811,-9622.677246,11843.295072,-74464.482406
210.828375,10807.006753,-10510.924376,-73851.606007
210.830940,7698.141797,4145.153275,-84423.723880
210.833504,-27683.702231,27831.743419,-82125.437386
210.836068,20281.642811,5181.441594,-67416.403824
210.838632,-48409.468607,5181.441594,-82278.656485
210.841196,22946.384202,12583.501014,-71400.100414
210.843761,-2516.700203,3256.906145,-75996.673402
210.846325,-18949.272115,25167.002028,-80440.027290
210.848889,-3256.906145,19245.354492,-77222.426198
210.851453,-11843.295072,-1332.370696,-76609.549800
210.854018,-7402.059420,5329.482782,-83504.409282
210.856582,-2664.741391,16728.654289,-78754.617194
210.859146,-6365.771101,-888.247130,-79673.931792
210.861714,-1332.370696,7846.182985,-80286.808190
210.864283,-6957.935855,16432.571912,-85649.476676
210.866851,-12879.583391,19097.313304,-76456.330700
210.869420,888.247130,9474.636058,-77375.645298
210.871988,-23242.466579,20281.642811,-84730.162079
210.874556,24870.919651,9030.512492,-71093.662214
210.877125,-25167.002028,-3108.864956,-81359.341888
210.879693,-5181.441594,29016.072926,-79673.931792
210.882262,-2516.700203,-3997.112087,-83044.751983
210.884830,-4737.318029,24574.837274,-62973.049936
210.887399,39675.038491,-32272.979071,-86568.791274
210.889967,-12435.459826,5033.400406,-80593.246390
210.892535,-3849.070898,7846.182985,-75690.235202
210.895104,9770.718434,6217.729913,-70480.785816
210.897672,19985.560434,-6513.812290,-77069.207099
210.900241,4885.359217,-6957.935855,-79520.712692
210.902809,39971.120868,8882.471304,-68029.280222
210.905377,-24870.919651,-592.164754,-83351.190182
210.907946,17616.901420,1776.494261,-74004.825107
210.910514,6217.729913,-9178.553681,-87181.667672
210.913083,12879.583391,5921.647536,-82585.094684
210.915651,-3849.070898,1924.535449,-75077.358804
210.918220,19837.519246,-14211.954086,-75996.673402
210.920788,9622.677246,-7550.100608,-85955.914876
210.923356,-2516.700203,10362.883188,-74464.482406
210.925925,28571.949361,-5773.606348,-70480.785816
210.928493,-6513.812290,-3701.029710,-82891.532884
210.931062,-296.082377,14508.036463,-74770.920605
210.933630,19985.560434,-15988.448347,-75077.358804
210.936198,-20577.725188,-1776.494261,-87641.324971
210.938767,26647.413912,1184.329507,-88407.420469
210.941335,-32124.937883,22354.219448,-77682.083497
210.943904,-33753.390955,29312.155303,-83197.971083
210.946472,9326.594869,-3108.864956,-91318.583362
210.949041,1776.494261,20429.683999,-67876.061123
210.951609,-33753.390955,6957.935855,-83964.066581
210.954177,25611.125593,34197.514520,-72012.976812
210.956746,-42931.944636,-4293.194464,-92084.678860
210.959314,30200.402434,12287.418637,-66497.089226
210.961883,-13175.665768,-296.082377,-88560.639569
210.964454,3701.029710,17468.860231,-71859.757712
210.967025,-16136.489536,3997.112087,-75690.235202
210.969596,10214.842000,12287.418637,-76609.549800
210.972167,-20429.683999,15248.242405,-78754.617194
210.974738,-10807.006753,17172.777854,-72319.415011
210.977309,-5773.606348,9474.636058,-81206.122788
210.979880,-7550.100608,20429.683999,-79827.150892
210.982451,12731.542202,-2664.741391,-75077.358804
210.985022,-7994.224174,17468.860231,-76609.549800
210.987593,2368.659014,13915.871710,-84576.942979
210.990164,-18949.272115,20725.766376,-77988.521696
210.992736,72836.264693,-21465.972318,-68948.594820
210.995307,-53886.992578,-6957.935855,-84883.381178
210.997878,62029.257940,6513.812290,-65884.212828
211.000449,-29460.196492,-2072.576638,-90246.049664
211.003020,23834.631332,16136.489536,-80440.027290
211.005591,5625.565159,-24426.796086,-79827.150892
211.008162,37898.544230,-7105.977043,-82125.437386
211.010733,-14063.912898,18801.230927,-86262.353075
211.013304,15840.407159,1480.411884,-75230.577904
211.015875,18209.066173,-12435.459826,-75383.797003
211.018446,3997.112087,4885.359217,-78141.740796
211.021017,16432.571912,2516.700203,-78294.959896
211.023588,3701.029710,-5181.441594,-75843.454302
211.026159,12435.459826,-9030.512492,-83504.409282
211.028731,1480.411884,8438.347739,-82278.656485
211.031302,33753.390955,-5625.565159,-74158.044206
211.033873,-22502.260637,592.164754,-81818.999186
211.036444,22946.384202,6365.771101,-75690.235202
211.039015,5477.523971,-10362.883188,-77835.302597
211.041586,-10362.883188,-8142.265362,-84270.504780
211.044157,30792.567187,-2368.659014,-83964.066581
211.046728,-22354.219448,17024.736666,-83657.628382
211.049299,-19245.354492,23390.507767,-78601.398095
211.051870,296.082377,-14063.912898,-95302.279951
211.054441,8438.347739,31976.896694,-69101.813920
211.057012,-28719.990550,-888.247130,-86415.572174
211.059583,21317.931130,38786.791361,-67722.842023
211.062154,-51074.209998,888.247130,-91012.145162
211.064726,33013.185013,12435.459826,-66190.651027
211.067299,-15840.407159,2072.576638,-87488.105872
211.069873,296.082377,22798.343014,-73085.510509
211.072446,-17912.983796,3404.947333,-78754.617194
211.075020,7994.224174,11991.336260,-74617.701505
211.077593,-16432.571912,15396.283594,-77682.083497
211.080167,-13619.789333,19393.395680,-74004.825107
211.082740,-3552.988522,13027.624579,-81359.341888
211.085314,-5181.441594,11695.253884,-81818.999186
211.087887,-18357.107362,444.123565,-81665.780087
211.090461,-1924.535449,24130.713709,-73391.948708
211.093034,1628.453072,10955.047942,-78141.740796
211.095608,-16876.695478,18801.230927,-69867.909418
211.098181,68246.987852,-30200.402434,-72472.634111
211.100755,-45596.686027,-3849.070898,-87794.544071
211.103328,36418.132346,11843.295072,-76149.892501
211.105902,-12731.542202,5625.565159,-80593.246390
211.108475,15692.365970,-6809.894666,-79980.369991
211.111049,2220.617826,-17616.901420,-87794.544071
211.113622,34345.555709,-4737.318029,-84270.504780
211.116196,-19541.436869,14952.160028,-83964.066581
211.118769,7994.224174,-148.041188,-75383.797003
211.121343,14359.995275,-9326.594869,-80440.027290
211.123916,8586.388927,7105.977043,-79980.369991
211.126490,10362.883188,2072.576638,-74311.263306
211.129063,7402.059420,-11843.295072,-81818.999186
211.131637,18357.107362,-9622.677246,-84730.162079
211.134210,2368.659014,7105.977043,-75537.016103
211.136784,19245.354492,-8882.471304,-74158.044206
211.139357,-12879.583391,6513.812290,-80593.246390
211.141931,10214.842000,5329.482782,-78294.959896
211.144504,6809.894666,-11991.336260,-78907.836294
211.147078,4885.359217,6069.688724,-80440.027290
211.149651,-20577.725188,20429.683999,-80899.684589
211.152225,34345.555709,5033.400406,-76149.892501
211.154798,-37750.503042,16580.613101,-77222.426198
211.157372,17320.819043,4885.359217,-71553.319513
211.159945,444.123565,12435.459826,-69255.033019
211.162519,-31828.855506,19393.395680,-83044.751983
211.165092,14656.077652,22058.137072,-73545.167808
211.167666,-26499.372724,-2220.617826,-81665.780087
211.170241,20281.642811,12583.501014,-69101.813920
211.172816,-9326.594869,13323.706956,-82585.094684
211.175391,5477.523971,7994.224174,-77682.083497
211.177966,-17468.860231,5773.606348,-80440.027290
211.180541,444.123565,18653.189738,-80746.465489
211.183116,-18209.066173,16876.695478,-79061.055394
211.185692,-2072.576638,16284.530724,-73545.167808
211.188267,-19245.354492,18949.272115,-80286.808190
211.190842,29608.237680,-5625.565159,-78754.617194
211.193417,-35085.761651,14952.160028,-77528.864398
211.195992,3108.864956,25907.207970,-71706.538613
211.198567,-21317.931130,-6957.935855,-90552.487864
211.201142,42191.738694,2220.617826,-73238.729609
211.203718,-20873.807564,-10955.047942,-90705.706963
211.206293,62029.257940,7105.977043,-64505.240932
211.208868,-40859.367998,-10510.924376,-85802.695776
211.211443,15988.448347,11695.253884,-73851.606007
211.214018,21910.095883,-23242.466579,-82278.656485
211.216593,7402.059420,-12879.583391,-77069.207099
211.219168,-296.082377,16580.613101,-75690.235202
211.221744,-7550.100608,740.205942,-82738.313784
211.224319,12879.583391,-3849.070898,-74617.701505
211.226894,-5477.523971,-1332.370696,-80593.246390
211.229469,26203.290347,-1036.288319,-79827.150892
211.232044,-7254.018232,-1332.370696,-80593.246390
211.234619,22502.260637,-13027.624579,-78141.740796
211.237194,740.205942,444.123565,-80440.027290
211.239770,28719.990550,-8142.265362,-76149.892501
211.242345,-15692.365970,7105.977043,-80133.589091
211.244920,18801.230927,6217.729913,-79061.055394
211.247495,18357.107362,-9918.759623,-79520.712692
211.250070,-7550.100608,-5477.523971,-85343.038477
211.252645,27535.661042,11103.089130,-74617.701505
211.255220,-46484.933158,24722.878463,-85802.695776
211.257796,-26351.331535,22650.301825,-87028.448573
211.260371,7105.977043,-3256.906145,-90858.926063
211.262946,148.041188,27831.743419,-67876.061123
211.265521,-35677.926404,1184.329507,-85189.819378
211.268096,20429.683999,32717.102636,-71400.100414
211.270671,-40711.326810,-888.247130,-93157.212557
211.273246,16580.613101,11843.295072,-70174.347617
211.275822,-12583.501014,5773.606348,-82891.532884
211.278397,12287.418637,10362.883188,-73698.386908
211.280972,-9474.636058,5921.647536,-80746.465489
211.283547,-2664.741391,21169.889941,-78601.398095
211.286122,-19541.436869,17912.983796,-78754.617194
211.288697,-888.247130,17616.901420,-74311.263306
211.291272,-10066.800811,14211.954086,-78754.617194
211.293819,17172.777854,-6513.812290,-80746.465489
211.296366,-16728.654289,14063.912898,-77988.521696
211.298913,-10955.047942,28127.825796,-74464.482406
211.301461,-19097.313304,5921.647536,-85036.600278
211.304008,75204.923707,-24426.796086,-75383.797003
211.306555,-53146.786636,296.082377,-88560.639569
211.309102,68987.193794,4441.235652,-70021.128517
211.311649,-36566.173535,-3404.947333,-92544.336158
211.314196,17320.819043,15692.365970,-78754.617194
211.316743,21762.054695,-22650.301825,-80899.684589
211.319290,-296.082377,-11695.253884,-79520.712692
211.321837,-8438.347739,17764.942608,-81052.903688
211.324384,10066.800811,1184.329507,-74158.044206
211.326931,20281.642811,-8734.430116,-74464.482406
211.329478,-2960.823768,5181.441594,-79673.931792
211.332025,8734.430116,4737.318029,-76762.768900
211.334572,5921.647536,-9622.677246,-77682.083497
211.337119,21910.095883,-15248.242405,-80286.808190
211.339666,-1036.288319,-1036.288319,-81512.560987
211.342213,5181.441594,-6217.729913,-79827.150892
211.344760,-3552.988522,13175.665768,-77682.083497
211.347307,12731.542202,-6661.853478,-77375.645298
211.349854,-148.041188,-9622.677246,-78294.959896
211.352401,27535.661042,2960.823768,-76149.892501
211.354948,-72984.305881,44856.480085,-80746.465489
211.357495,37454.420665,-740.205942,-77528.864398
211.360042,-46336.891969,15396.283594,-80593.246390
211.362589,20133.601622,9918.759623,-68642.156621
211.365136,-11547.212695,-444.123565,-80440.027290
211.367683,-7846.182985,24278.754898,-77222.426198
211.370230,-18949.272115,12287.418637,-82125.437386
211.372777,2220.617826,6513.812290,-74311.263306
211.375330,-3552.988522,5329.482782,-78907.836294
211.377884,-11547.212695,13323.706956,-79673.931792
211.380437,6513.812290,7550.100608,-75383.797003
211.382990,-7254.018232,4737.318029,-78601.398095
211.385543,-6069.688724,17616.901420,-80899.684589
211.388097,-21021.848753,19393.395680,-78448.178995
211.390650,-592.164754,19837.519246,-74311.263306
211.393203,-2516.700203,2368.659014,-82585.094684
211.395756,7550.100608,-4737.318029,-82431.875585
211.398309,-29904.320057,31976.896694,-77528.864398
211.400863,13767.830521,6957.935855,-77528.864398
211.403416,-32865.143825,17764.942608,-78601.398095
211.405969,32421.020260,-26647.413912,-88100.982270
211.408522,1628.453072,7402.059420,-76456.330700
211.411076,-19541.436869,2516.700203,-83044.751983
211.413629,10510.924376,8734.430116,-73391.948708
211.416182,17468.860231,-9474.636058,-81665.780087
211.418735,10214.842000,-11103.089130,-79980.369991
211.421289,32717.102636,-5033.400406,-78294.959896
211.423842,-16728.654289,13175.665768,-79214.274493
211.426395,12879.583391,444.123565,-75690.235202
211.428948,1480.411884,1184.329507,-83810.847481
211.431501,26351.331535,-1480.411884,-81665.780087
211.434055,-3701.029710,-2368.659014,-80746.465489
211.436608,26351.331535,-14804.118840,-78907.836294
211.439161,11991.336260,-5773.606348,-81052.903688
211.441714,26203.290347,-3997.112087,-76149.892501
211.444268,-592.164754,6217.729913,-76762.768900
211.446821,-3701.029710,6661.853478,-81052.903688
211.449374,22798.343014,-23686.590144,-82738.313784
211.451927,-17764.942608,1480.411884,-89786.392366
211.454480,1924.535449,16136.489536,-87028.448573
211.457034,-24722.878463,14359.995275,-86262.353075
211.459587,-19245.354492,15840.407159,-83964.066581
211.462140,8438.347739,-11547.212695,-95608.718150
211.464693,5773.606348,31088.649564,-76303.111601
211.467247,-30348.443622,11547.212695,-82278.656485
211.469800,18209.066173,26203.290347,-68948.594820
211.472353,-31828.855506,-1776.494261,-84423.723880
211.474906,23242.466579,14508.036463,-71093.662214
211.477465,-19393.395680,6957.935855,-87794.544071
211.480024,15100.201217,11843.295072,-73698.386908
211.482583,-8734.430116,-296.082377,-77375.645298
211.485142,-296.082377,25907.207970,-72472.634111
211.487700,-11843.295072,20577.725188,-79214.274493
211.490259,-5033.400406,23834.631332,-75077.358804
211.492818,6809.894666,5773.606348,-80133.589091
211.495377,-2220.617826,-7402.059420,-84423.723880
211.497936,-7254.018232,24574.837274,-71553.319513
211.500495,-1036.288319,16284.530724,-74924.139704
211.503054,-12879.583391,9918.759623,-81052.903688
211.505612,78165.747475,-30940.608376,-74770.920605
211.508171,-53294.827824,3404.947333,-85496.257577
211.510730,14952.160028,9918.759623,-77528.864398
211.513289,-2368.659014,2368.659014,-75077.358804
211.515848,15692.365970,-3256.906145,-75383.797003
211.518407,17320.819043,-18801.230927,-81818.999186
211.520965,28127.825796,-7550.100608,-84270.504780
211.523524,-5625.565159,9326.594869,-82891.532884
211.526083,12731.542202,1332.370696,-78907.836294
211.528642,13323.706956,444.123565,-79367.493593
211.531201,3849.070898,740.205942,-77069.207099
211.533760,-592.164754,-2516.700203,-79980.369991
211.536318,21762.054695,-15248.242405,-86722.010374
211.538877,11399.171507,-1628.453072,-84883.381178
211.541436,22798.343014,-5921.647536,-74158.044206
211.543995,-9918.759623,9770.718434,-74770.920605
211.546554,740.205942,9326.594869,-79061.055394
211.549113,30496.484810,-19837.519246,-83964.066581
211.551672,-4589.276840,1184.329507,-82891.532884
211.554230,-4145.153275,14656.077652,-83197.971083
211.556789,-16876.695478,15248.242405,-83964.066581
211.559348,-17764.942608,15396.283594,-83657.628382
211.561907,11991.336260,-10807.006753,-93157.212557
211.564466,296.082377,29312.155303,-74311.263306
211.567025,-24278.754898,4737.318029,-85802.695776
211.569583,9622.677246,32865.143825,-72625.853210
211.572142,-25018.960840,1480.411884,-83197.971083
211.574701,19985.560434,13471.748144,-71093.662214
211.577260,-14656.077652,3108.864956,-87181.667672
211.579823,6809.894666,14952.160028,-74617.701505
211.582386,-11547.212695,3701.029710,-78754.617194
211.584949,-1036.288319,18653.189738,-75230.577904
211.587512,-17024.736666,18357.107362,-80746.465489
211.590074,-9918.759623,22058.137072,-76915.987999
211.592637,5329.482782,-4441.235652,-79367.493593
211.595200,-13027.624579,-2368.659014,-86262.353075
211.597763,-1924.535449,33013.185013,-72472.634111
211.600326,-11843.295072,3849.070898,-82431.875585
211.602889,-9326.594869,21910.095883,-70634.004916
211.605452,54035.033766,-39378.956114,-79061.055394
211.608015,-23242.466579,7994.224174,-74158.044206
211.610578,9474.636058,9770.718434,-80593.246390
211.613141,12287.418637,6365.771101,-65118.117330
211.615704,10066.800811,-17320.819043,-77222.426198
211.618266,13915.871710,-12435.459826,-83351.190182
211.620829,41599.573940,1332.370696,-83504.409282
211.623392,-19689.478057,6513.812290,-80746.465489
211.625955,15544.324782,-3256.906145,-69867.909418
211.628518,1776.494261,-8438.347739,-89173.515967
211.631081,14952.160028,6513.812290,-87641.324971
211.633644,592.164754,1628.453072,-78907.836294
211.636207,21465.972318,-15248.242405,-82431.875585
211.638770,15396.283594,-7105.977043,-87028.448573
211.641333,5477.523971,-3108.864956,-81818.999186
211.643895,-7994.224174,15988.448347,-75383.797003
211.646458,9030.512492,-6661.853478,-78754.617194
211.649021,14508.036463,-13471.748144,-79827.150892
211.651584,19541.436869,9622.677246,-75843.454302
211.654147,-30644.525999,41895.656317,-68795.375720
211.656710,28719.990550,-1184.329507,-76609.549800
211.659273,-23982.672521,2960.823768,-81512.560987
211.661836,11843.295072,15692.365970,-71706.538613
211.664399,5477.523971,10807.006753,-68642.156621
211.666962,-29756.278868,21021.848753,-77222.426198
211.669525,4737.318029,19097.313304,-73698.386908
211.672087,-12435.459826,-4145.153275,-85036.600278
211.674650,3108.864956,16432.571912,-76762.768900
211.677213,-6365.771101,12139.377449,-77069.207099
211.679776,-592.164754,7698.141797,-78141.740796
211.682342,-14211.954086,13323.706956,-79673.931792
211.684908,-1776.494261,17320.819043,-77069.207099
211.687474,-25759.166782,19985.560434,-80593.246390
211.690040,-592.164754,13619.789333,-76915.987999
211.692607,9770.718434,-14804.118840,-85189.819378
211.695173,-14952.160028,26203.290347,-75996.673402
211.697739,2812.782580,21021.848753,-74158.044206
211.700305,-15988.448347,24278.754898,-70940.443115
211.702871,75945.129649,-38046.585419,-75996.673402
211.705437,-39675.038491,2664.741391,-79520.712692
211.708003,48409.468607,11695.253884,-70787.224015
211.710569,-23538.548956,296.082377,-85189.819378
211.713135,31088.649564,6513.812290,-69867.909418
211.715701,14359.995275,-22650.301825,-75077.358804
211.718267,17024.736666,-7402.059420,-77528.864398
211.720833,-12731.542202,12287.418637,-82431.875585
211.723399,13619.789333,444.123565,-71706.538613
211.725965,148.041188,-9326.594869,-81972.218286
211.728532,19245.354492,888.247130,-82738.313784
211.731098,5625.565159,0.000000,-80899.684589
211.733664,15692.365970,-11399.171507,-81512.560987
211.736230,31236.690752,-13619.789333,-79061.055394
211.738796,1036.288319,-6217.729913,-80133.589091
211.741362,-8882.471304,21910.095883,-74464.482406
211.743928,11103.089130,-12583.501014,-77835.302597
211.746494,8142.265362,-14211.954086,-77682.083497
211.749060,30348.443622,8882.471304,-75996.673402
211.751626,-59364.516548,45004.521274,-81052.903688
211.754192,26647.413912,4589.276840,-75996.673402
211.756758,-41155.450375,9474.636058,-77222.426198
211.759324,33309.267390,6365.771101,-72319.415011
211.761890,-11251.130318,5181.441594,-79367.493593
211.764457,-13767.830521,22502.260637,-75537.016103
211.767023,-16432.571912,13619.789333,-76915.987999
211.769589,-1776.494261,4441.235652,-77835.302597
211.772155,-2516.700203,10658.965565,-76762.768900
211.774721,-4737.318029,6661.853478,-79827.150892
211.777287,-3256.906145,11991.336260,-75230.577904
211.779853,-9622.677246,7846.182985,-81206.122788
211.782419,-3849.070898,23686.590144,-74617.701505
211.784988,-20873.807564,24426.796086,-75843.454302
211.787557,9178.553681,14211.954086,-71246.881314
211.790125,-3997.112087,-15100.201217,-84730.162079
211.792694,-296.082377,20133.601622,-73085.510509
211.795263,-6957.935855,20429.683999,-75996.673402
211.797832,-15248.242405,7994.224174,-84117.285680
211.800400,63509.669824,-16728.654289,-72779.072310
211.802969,-36566.173535,3701.029710,-80593.246390
211.805538,46781.015534,10214.842000,-72779.072310
211.808107,-20873.807564,-1480.411884,-89479.954166
211.810675,15840.407159,8142.265362,-76609.549800
211.813244,14359.995275,-20725.766376,-78601.398095
211.815813,14063.912898,-7846.182985,-79980.369991
211.818382,-8586.388927,9474.636058,-83351.190182
211.820950,3997.112087,0.000000,-82891.532884
211.823519,14804.118840,3108.864956,-77988.521696
211.826088,5625.565159,-1332.370696,-81972.218286
211.828657,9622.677246,-592.164754,-82738.313784
211.831226,8586.388927,-15248.242405,-84730.162079
211.833794,24130.713709,-11547.212695,-80133.589091
211.836363,-1184.329507,-6069.688724,-83657.628382
211.838932,2812.782580,21169.889941,-75843.454302
211.841501,-6513.812290,-3849.070898,-81206.122788
211.844069,21021.848753,-19837.519246,-76915.987999
211.846638,27683.702231,8734.430116,-74158.044206
211.849207,-53886.992578,50630.086433,-74158.044206
211.851776,31384.731941,-148.041188,-69867.909418
211.854344,-37158.338288,-3256.906145,-79061.055394
211.856913,25463.084405,22354.219448,-67569.622924
211.859482,1332.370696,6513.812290,-77988.521696
211.862051,-18061.024985,21317.931130,-75996.673402
211.864619,-6365.771101,16876.695478,-73698.386908
211.867188,13471.748144,10066.800811,-74004.825107
211.869757,-7550.100608,3552.988522,-85343.038477
211.872326,-8734.430116,15396.283594,-77528.864398
211.874894,-2812.782580,5477.523971,-78907.836294
211.877463,-12583.501014,15100.201217,-78448.178995
211.880032,-3256.906145,20577.725188,-77375.645298
211.882601,-22206.178260,24426.796086,-78448.178995
211.885169,9474.636058,11695.253884,-75843.454302
211.887741,-17616.901420,-3849.070898,-84730.162079
211.890312,-5625.565159,33309.267390,-68642.156621
211.892883,-15692.365970,-740.205942,-81512.560987
211.895454,-11251.130318,20281.642811,-71093.662214
211.898025,59512.557737,-36714.214723,-83351.190182
211.900596,-20725.766376,5181.441594,-79367.493593
211.903167,11843.295072,11399.171507,-76609.549800
211.905739,0.000000,1776.494261,-76762.768900
211.908310,15692.365970,-8734.430116,-79980.369991
211.910881,7846.182985,-13915.871710,-83964.066581
211.913452,30940.608376,0.000000,-79520.712692
211.916023,-26795.455100,5033.400406,-83810.847481
211.918594,18653.189738,3849.070898,-71093.662214
211.921165,-1924.535449,-4145.153275,-86415.572174
211.923736,14508.036463,2664.741391,-82278.656485
211.926308,10658.965565,-7402.059420,-77375.645298
211.928879,26943.496289,-11991.336260,-80746.465489
211.931450,10362.883188,-3256.906145,-79520.712692
211.934021,-4589.276840,6513.812290,-74004.825107
211.936592,4145.153275,12435.459826,-72472.634111
211.939163,10362.883188,-21021.848753,-88407.420469
211.941734,9030.512492,-4293.194464,-81818.999186
211.944305,15544.324782,444.123565,-80133.589091
211.946877,-36714.214723,32421.020260,-81665.780087
211.949448,-39378.956114,14508.036463,-83810.847481
211.952019,21169.889941,-11399.171507,-79980.369991
211.954590,-3256.906145,27831.743419,-75690.235202
211.957161,-16580.613101,4885.359217,-93463.650756
211.959732,8290.306550,35825.967593,-69255.033019
211.962303,-38046.585419,-1184.329507,-82431.875585
211.964874,27239.578666,15396.283594,-66037.431928
211.967446,-20281.642811,-2072.576638,-89020.296868
211.970017,3997.112087,19097.313304,-72012.976812
211.972588,-11547.212695,4145.153275,-81359.341888
211.975159,-3108.864956,26351.331535,-74464.482406
211.977730,-17764.942608,24130.713709,-78294.959896
211.980301,-1332.370696,17616.901420,-74924.139704
211.982872,740.205942,-11399.171507,-86262.353075
211.985443,-10955.047942,15396.283594,-77528.864398
211.988015,-13915.871710,30644.525999,-69561.471218
211.990587,-25759.166782,17024.736666,-84270.504780
211.993160,88084.507098,-32124.937883,-74004.825107
211.995733,-56699.775157,-2072.576638,-84730.162079
211.998306,81718.735997,11547.212695,-65577.774629
212.000879,-36566.173535,-5181.441594,-93463.650756
212.003452,24870.919651,12139.377449,-73085.510509
212.006025,19837.519246,-23686.590144,-75690.235202
212.008598,11991.336260,-9326.594869,-77375.645298
212.011171,1184.329507,11103.089130,-81665.780087
212.013744,15396.283594,1036.288319,-74924.139704
212.016317,6069.688724,-1184.329507,-75843.454302
212.018889,8290.306550,148.041188,-80593.246390
212.021462,16876.695478,-3404.947333,-78601.398095
212.024035,5625.565159,-14952.160028,-85036.600278
212.026608,33901.432144,-9326.594869,-80746.465489
212.029181,-5625.565159,1184.329507,-81206.122788
212.031754,7105.977043,17024.736666,-69561.471218
212.034327,8882.471304,-17912.983796,-86568.791274
212.036900,11991.336260,-13471.748144,-84576.942979
212.039473,21317.931130,6217.729913,-75690.235202
212.042046,-52554.621882,45004.521274,-72932.291410
212.044618,23390.507767,-2812.782580,-70174.347617
212.047191,-34937.720462,-17764.942608,-89939.611465
212.049764,15396.283594,33753.390955,-69714.690318
212.052337,-16728.654289,-2220.617826,-86875.229473
212.054910,5329.482782,36418.132346,-70021.128517
212.057483,-35825.967593,4885.359217,-89326.735067
212.060056,27831.743419,12731.542202,-70480.785816
212.062629,-9326.594869,-5921.647536,-87181.667672
212.065202,-444.123565,15692.365970,-73851.606007
212.067775,-7105.977043,5921.647536,-83197.971083
212.070348,-11547.212695,21762.054695,-77835.302597
212.072920,-13915.871710,26055.249158,-75690.235202
212.075493,-2812.782580,17172.777854,-76149.892501
212.078066,16876.695478,-11251.130318,-83657.628382
212.080639,-32421.020260,18653.189738,-80440.027290
212.083212,14359.995275,18653.189738,-69408.252119
212.085785,-36566.173535,2220.617826,-92237.897959
212.088358,78461.829852,-12139.377449,-75537.016103
212.090931,-48261.427418,-7254.018232,-92237.897959
212.093476,85419.765707,9918.759623,-58070.038748
212.096021,-29164.114115,-5921.647536,-90399.268764
212.098566,32865.143825,13323.706956,-72012.976812
212.101111,14508.036463,-19689.478057,-75230.577904
212.103657,14804.118840,-10214.842000,-76609.549800
212.106202,148.041188,9474.636058,-78294.959896
212.108747,7402.059420,6513.812290,-74158.044206
212.111292,2664.741391,148.041188,-74617.701505
212.113837,7254.018232,-3552.988522,-80746.465489
212.116383,15840.407159,-5921.647536,-78141.740796
212.118928,15840.407159,-19393.395680,-81972.218286
212.121473,13619.789333,-5181.441594,-78754.617194
212.124018,-9030.512492,11695.253884,-78907.836294
212.126563,8142.265362,13323.706956,-75383.797003
212.129108,6217.729913,-22058.137072,-86262.353075
212.131654,13767.830521,-2220.617826,-79673.931792
212.134199,-7105.977043,16728.654289,-83351.190182
212.136744,-13323.706956,20873.807564,-83657.628382
212.139289,-46929.056723,15100.201217,-82125.437386
212.141834,35974.008781,1332.370696,-74004.825107
212.144379,4589.276840,26351.331535,-69561.471218
212.146925,-21465.972318,4885.359217,-85649.476676
212.149470,18357.107362,28868.031738,-65118.117330
212.152015,-31088.649564,-1332.370696,-84883.381178
212.154560,29016.072926,17912.983796,-67416.403824
212.157105,-14656.077652,-6365.771101,-88254.201370
212.159651,6217.729913,15840.407159,-73545.167808
212.162196,-23982.672521,7550.100608,-83504.409282
212.164741,-2516.700203,27831.743419,-74311.263306
212.167286,-31088.649564,22946.384202,-81206.122788
212.169831,23686.590144,-592.164754,-79520.712692
212.172376,-13767.830521,-5033.400406,-88100.982270
212.174922,-13915.871710,30496.484810,-73391.948708
212.177467,10214.842000,6069.688724,-75230.577904
212.180012,-1776.494261,11251.130318,-75690.235202
212.182557,25759.166782,-23242.466579,-89786.392366
212.185102,21910.095883,7698.141797,-67569.622924
212.187647,-35974.008781,4441.235652,-80133.589091
212.190193,14804.118840,888.247130,-72472.634111
212.192738,11991.336260,-7994.224174,-78907.836294
212.195262,14656.077652,-11991.336260,-79980.369991
212.197785,29904.320057,-5033.400406,-80440.027290
212.200308,-14952.160028,-1332.370696,-84117.285680
212.202831,16284.530724,5625.565159,-74770.920605
212.205354,-8882.471304,-592.164754,-84730.162079
212.207877,13619.789333,-3256.906145,-78448.178995
212.210400,1628.453072,-9622.677246,-78141.740796
212.212924,28423.908173,-18949.272115,-83351.190182
212.215447,5921.647536,-148.041188,-83351.190182
212.217970,-10510.924376,18357.107362,-73085.510509
212.220493,17024.736666,-7698.141797,-74311.263306
212.223016,8142.265362,-20281.642811,-87181.667672
212.225539,35974.008781,7846.182985,-70634.004916
212.228062,-62029.257940,48113.386230,-70327.566716
212.230585,33309.267390,0.000000,-71706.538613
212.233108,-37306.379477,-10510.924376,-87641.324971
212.235631,18209.066173,24278.754898,-68642.156621
212.238154,-1628.453072,7994.224174,-76762.768900
212.240677,-25907.207970,20725.766376,-81206.122788
212.243200,-32717.102636,11547.212695,-83657.628382
212.245723,16432.571912,9770.718434,-72472.634111
212.248246,-10362.883188,-740.205942,-84117.285680
212.250769,-3997.112087,10658.965565,-79061.055394
212.253292,1184.329507,10807.006753,-80593.246390
212.255816,-22058.137072,19541.436869,-80899.684589
212.258339,-10362.883188,29756.278868,-75077.358804
212.260862,-10362.883188,11547.212695,-76456.330700
212.263385,13027.624579,-10807.006753,-85496.257577
212.265908,-31976.896694,26943.496289,-81665.780087
212.268431,20429.683999,19689.478057,-68795.375720
212.270954,-35825.967593,13915.871710,-83044.751983
212.273477,91193.372054,-31976.896694,-76915.987999
212.276000,-47817.303853,-2960.823768,-87947.763170
212.278523,76833.376780,12731.542202,-60061.887043
212.281046,-28868.031738,-12879.583391,-93157.212557
212.283569,19689.478057,6217.729913,-75230.577904
212.286092,17912.983796,-16432.571912,-73085.510509
212.288615,16876.695478,-10362.883188,-79214.274493
212.291138,-11547.212695,9178.553681,-83810.847481
212.293661,17764.942608,2516.700203,-78754.617194
212.296195,6217.729913,-296.082377,-77222.426198
212.298729,2812.782580,-3701.029710,-81818.999186
212.301263,17912.983796,-6069.688724,-76303.111601
212.303797,21169.889941,-24278.754898,-83504.409282
212.306331,7254.018232,1036.288319,-83044.751983
212.308865,-5773.606348,18949.272115,-77069.207099
212.311399,20133.601622,5477.523971,-68182.499322
212.313933,4441.235652,-21910.095883,-82738.313784
212.316467,39971.120868,9622.677246,-72166.195912
212.319001,-52110.498317,45152.562462,-74464.482406
212.321535,26647.413912,10066.800811,-70634.004916
212.324069,-45300.603650,-1776.494261,-85649.476676
212.326603,30200.402434,20429.683999,-67876.061123
212.329137,148.041188,18209.066173,-68182.499322
212.331671,-22206.178260,15100.201217,-77988.521696
212.334205,7698.141797,14211.954086,-72319.415011
212.336739,-15100.201217,-1480.411884,-84576.942979
212.339273,7846.182985,21317.931130,-75996.673402
212.341807,-10510.924376,-740.205942,-87794.544071
212.344341,9030.512492,14359.995275,-76149.892501
212.346875,-25759.166782,16432.571912,-82431.875585
212.349409,-6661.853478,32421.020260,-75230.577904
212.351943,-9622.677246,12287.418637,-76149.892501
212.354477,15840.407159,-6217.729913,-81359.341888
212.357011,-27831.743419,19097.313304,-85036.600278
212.359545,6661.853478,25759.166782,-66956.746525
212.362079,-31680.814318,5773.606348,-82891.532884
212.364613,61733.175563,-14508.036463,-78907.836294
212.367147,-37158.338288,-6069.688724,-80133.589091
212.369681,55515.445650,13915.871710,-62666.611736
212.372215,-23538.548956,-4589.276840,-88407.420469
212.374749,17320.819043,9474.636058,-78448.178995
212.377283,16728.654289,-12731.542202,-74004.825107
212.379817,18949.272115,-8734.430116,-75383.797003
212.382351,3404.947333,9474.636058,-76303.111601
212.384885,-2516.700203,444.123565,-79214.274493
212.387419,10510.924376,-444.123565,-77988.521696
212.389953,6957.935855,-6513.812290,-87334.886772
212.392486,19689.478057,-6365.771101,-80593.246390
212.395020,24722.878463,-22650.301825,-83964.066581
212.397563,12583.501014,0.000000,-83504.409282
212.400106,-7105.977043,21614.013506,-75843.454302
212.402649,20281.642811,-2220.617826,-67109.965625
212.405192,592.164754,-23686.590144,-83044.751983
212.407735,51518.333563,9770.718434,-67876.061123
212.410278,-73428.429446,52110.498317,-61900.516238
212.412821,39675.038491,-5625.565159,-67569.622924
212.415364,-42191.738694,0.000000,-89786.392366
212.417906,32865.143825,16284.530724,-72779.072310
212.420449,1628.453072,19245.354492,-69255.033019
212.422992,-19689.478057,14063.912898,-78294.959896
212.425535,11251.130318,18653.189738,-70787.224015
212.428078,2516.700203,5625.565159,-75230.577904
212.430621,-6957.935855,11251.130318,-81972.218286
212.433164,-7254.018232,8586.388927,-81818.999186
