#time,accel_x,accel_y,accel_z
170.580978,0.000000,555.134843,-9954.142016
170.583543,-76.570323,497.707101,-9877.571693
170.586108,708.275490,516.849682,-9743.573627
170.588673,172.283227,497.707101,-10030.712339
170.591237,267.996131,210.568389,-10088.140082
170.593802,0.000000,918.843878,-9896.714274
170.596367,267.996131,631.705166,-10068.997501
170.598932,267.996131,516.849682,-9992.427178
170.601497,-459.421939,689.132909,-9896.714274
170.604062,-191.425808,574.277424,-9992.427178
170.606626,-421.136778,267.996131,-9973.284597
170.609191,-114.855485,899.701298,-9877.571693
170.611756,-612.562586,478.564520,-10260.423309
170.614321,-1205.982590,1033.699363,-9513.862658
170.616886,-363.709035,1167.697429,-9801.001370
170.619450,-1091.127106,4019.941968,-9647.860723
170.622015,574.277424,1493.121302,-10202.995566
170.624580,535.992262,1569.691626,-9475.577496
170.627144,1493.121302,-535.992262,-9934.999435
170.629709,-2526.820666,459.421939,-9839.286531
170.632273,57.427742,38.285162,-9686.145885
170.634837,823.130974,-995.414202,-9533.005238
170.637402,2316.252277,-1244.267752,-10834.700733
170.639966,-689.132909,1512.263883,-9820.143950
170.642530,-325.423874,689.132909,-9265.009107
170.645095,1493.121302,-1091.127106,-10068.997501
170.647659,957.129040,-421.136778,-10547.562021
170.650223,267.996131,1167.697429,-9934.999435
170.652788,172.283227,2009.970984,-9743.573627
170.655352,918.843878,-669.990328,-10643.274925
170.657916,1225.125171,-1225.125171,-10164.710405
170.660480,689.132909,976.271621,-9418.149754
170.663045,19.142581,1071.984525,-9973.284597
170.665609,1052.841944,248.853550,-10164.710405
170.668173,401.994197,248.853550,-9915.856854
170.670738,-516.849682,535.992262,-9896.714274
170.673302,325.423874,1205.982590,-9820.143950
170.675866,38.285162,-57.427742,-9934.999435
170.678431,650.847747,899.701298,-9341.579430
170.680995,497.707101,229.710970,-10183.852986
170.683559,1493.121302,-248.853550,-10049.854920
170.686124,1493.121302,-325.423874,-10183.852986
170.688688,574.277424,133.998066,-10317.851051
170.691252,191.425808,459.421939,-9820.143950
170.693817,-612.562586,76.570323,-9494.720077
170.696381,1952.543242,516.849682,-9743.573627
170.698945,1033.699363,210.568389,-10068.997501
170.701510,-382.851616,0.000000,-9896.714274
170.704074,593.420005,153.140646,-9647.860723
170.706638,650.847747,-1129.412267,-11102.696864
170.709203,1703.689691,899.701298,-9820.143950
170.711767,421.136778,267.996131,-9954.142016
170.714331,3503.092286,631.705166,-9437.292334
170.716896,-2354.537438,2124.826469,-11600.403965
170.719460,823.130974,133.998066,-9934.999435
170.722024,-4517.649069,-2450.250342,-10547.562021
170.724589,2890.529701,2603.390989,-7771.887805
170.727153,2488.535504,-2756.531635,-11600.403965
170.729717,-3732.803256,3962.514226,-9475.577496
170.732281,19.142581,2871.387120,-8958.727814
170.734845,-2737.389054,210.568389,-10566.704602
170.737409,2182.254211,2086.541307,-9207.581365
170.739973,-382.851616,-401.994197,-10068.997501
170.742537,-153.140646,2354.537438,-9667.003304
170.745102,-306.281293,1607.976787,-9667.003304
170.747666,-746.560651,-229.710970,-10088.140082
170.750230,842.273555,1703.689691,-9245.866526
170.752794,-669.990328,1665.404530,-10260.423309
170.755358,-210.568389,1741.974853,-9877.571693
170.757922,210.568389,248.853550,-9954.142016
170.760486,-574.277424,1780.260014,-9915.856854
170.763050,478.564520,765.703232,-10260.423309
170.765614,-823.130974,631.705166,-10068.997501
170.768178,1320.838075,1052.841944,-9858.429112
170.770742,-574.277424,1110.269686,-10145.567824
170.773307,191.425808,-57.427742,-10241.280728
170.775871,-1071.984525,1091.127106,-9437.292334
170.778435,191.425808,937.986459,-10222.138147
170.780999,-918.843878,1244.267752,-9896.714274
170.783563,-650.847747,1493.121302,-9686.145885
170.786127,-593.420005,2067.398726,-9915.856854
170.788691,-248.853550,1875.972918,-9896.714274
170.791255,-153.140646,957.129040,-9781.858789
170.793819,-746.560651,823.130974,-10107.282662
170.796383,114.855485,1473.978722,-9418.149754
170.798947,-535.992262,191.425808,-9992.427178
170.801512,-153.140646,880.558717,-9705.288466
170.804076,-1225.125171,1703.689691,-9954.142016
170.806640,1550.549045,1033.699363,-9437.292334
170.809204,612.562586,-19.142581,-10853.843314
170.811768,2928.814862,3637.090352,-9609.575562
170.814332,-2737.389054,-2297.109696,-10604.989763
170.816896,-210.568389,2354.537438,-8671.589102
170.819460,516.849682,-1607.976787,-11313.265253
170.822024,248.853550,-19.142581,-9973.284597
170.824588,1225.125171,3981.656806,-8575.876198
170.827153,-382.851616,-1761.117434,-10566.704602
170.829717,-995.414202,689.132909,-9934.999435
170.832280,3177.668413,-1110.269686,-10279.565890
170.834843,1990.828403,-248.853550,-10585.847182
170.837407,-153.140646,1971.685822,-9399.007173
170.839970,248.853550,440.279358,-9820.143950
170.842534,2450.250342,-210.568389,-9686.145885
170.845097,1014.556782,-440.279358,-10796.415571
170.847661,0.000000,114.855485,-10068.997501
170.850224,-363.709035,2775.674216,-8939.585234
170.852787,650.847747,-1129.412267,-10336.993632
170.855351,1473.978722,19.142581,-9533.005238
170.857914,-191.425808,0.000000,-9628.718142
170.860478,421.136778,803.988394,-9360.722011
170.863041,133.998066,191.425808,-10164.710405
170.865605,172.283227,1301.695494,-9533.005238
170.868168,880.558717,57.427742,-9954.142016
170.870732,95.712904,1359.123237,-9820.143950
170.873295,1033.699363,248.853550,-9992.427178
170.875858,-114.855485,669.990328,-9667.003304
170.878422,1186.840010,191.425808,-10049.854920
170.880985,229.710970,-210.568389,-10222.138147
170.883549,784.845813,-727.418070,-9877.571693
170.886112,1014.556782,-842.273555,-9820.143950
170.888676,-1339.980656,-248.853550,-10317.851051
170.891239,1454.836141,1837.687757,-9150.153622
170.893802,133.998066,57.427742,-10490.134278
170.896366,-669.990328,-727.418070,-10432.706536
170.898929,995.414202,-114.855485,-9456.434915
170.901493,-57.427742,-19.142581,-10241.280728
170.904056,880.558717,708.275490,-10068.997501
170.906620,-38.285162,-248.853550,-9322.436850
170.909183,3694.518094,-459.421939,-9092.725880
170.911746,-880.558717,1914.258080,-11581.261384
170.914310,-2450.250342,1014.556782,-11351.550414
170.916873,-957.129040,-2182.254211,-9513.862658
170.919437,3292.523898,3101.098090,-7542.176835
170.922000,2679.961312,-3522.234867,-12366.107197
170.924564,-4000.799387,4173.082614,-9188.438784
170.927127,-19.142581,2258.824534,-8843.872330
170.929690,-2124.826469,-708.275490,-11217.552349
170.932254,2660.818731,1397.408398,-9418.149754
170.934817,-669.990328,-191.425808,-9934.999435
170.937380,555.134843,669.990328,-9265.009107
170.939943,-689.132909,1627.119368,-10145.567824
170.942506,574.277424,-114.855485,-10528.419440
170.945069,-229.710970,1627.119368,-9513.862658
170.947632,229.710970,1091.127106,-10011.569758
170.950195,-1014.556782,1397.408398,-10241.280728
170.952758,287.138712,995.414202,-9399.007173
170.955321,306.281293,1627.119368,-9858.429112
170.957884,-1014.556782,1473.978722,-9954.142016
170.960448,-650.847747,1339.980656,-9781.858789
170.963011,765.703232,535.992262,-10241.280728
170.965574,-76.570323,497.707101,-10164.710405
170.968137,-153.140646,765.703232,-9762.716208
170.970700,363.709035,555.134843,-10068.997501
170.973263,-1052.841944,899.701298,-10413.563955
170.975826,0.000000,1741.974853,-9934.999435
170.978389,-1301.695494,1875.972918,-9456.434915
170.980952,114.855485,1205.982590,-9839.286531
170.983515,-401.994197,325.423874,-10068.997501
170.986078,1071.984525,746.560651,-9743.573627
170.988641,-191.425808,-267.996131,-10375.278794
170.991204,612.562586,1148.554848,-9265.009107
170.993767,-2220.539373,1473.978722,-9743.573627
170.996330,2737.389054,1818.545176,-9169.296203
170.998893,-861.416136,-1014.556782,-11006.983960
171.001457,440.279358,1320.838075,-9820.143950
171.004020,1856.830338,2641.676150,-8537.591037
171.006583,-3062.812928,-1473.978722,-11217.552349
171.009146,2813.959378,210.568389,-8997.012976
171.011709,172.283227,-2201.396792,-10470.991698
171.014272,2048.256146,2105.683888,-9571.290400
171.016834,-306.281293,3101.098090,-10490.134278
171.019397,-1339.980656,-1780.260014,-11313.265253
171.021959,593.420005,-229.710970,-8480.163294
171.024521,459.421939,-1914.258080,-10394.421374
171.027084,1914.258080,1875.972918,-10107.282662
171.029646,-459.421939,1052.841944,-10681.560086
171.032209,-114.855485,765.703232,-9801.001370
171.034771,2737.389054,-76.570323,-10030.712339
171.037333,-478.564520,57.427742,-9667.003304
171.039896,133.998066,440.279358,-9743.573627
171.042458,-1071.984525,1684.547110,-9724.431046
171.045020,1282.552914,-133.998066,-10317.851051
171.047583,1531.406464,95.712904,-9399.007173
171.050145,267.996131,-114.855485,-10145.567824
171.052708,516.849682,1646.261949,-9743.573627
171.055270,382.851616,-114.855485,-10375.278794
171.057832,1569.691626,937.986459,-9609.575562
171.060395,-765.703232,325.423874,-9571.290400
171.062957,631.705166,325.423874,-9628.718142
171.065519,1263.410333,535.992262,-9724.431046
171.068082,-57.427742,267.996131,-9915.856854
171.070644,1052.841944,-325.423874,-9992.427178
171.073207,1493.121302,-1435.693560,-9743.573627
171.075769,-57.427742,-229.710970,-10011.569758
171.078331,1052.841944,1244.267752,-9628.718142
171.080894,344.566454,1454.836141,-10164.710405
171.083456,-631.705166,555.134843,-9781.858789
171.086019,-1148.554848,-1244.267752,-9877.571693
171.088581,-19.142581,-1339.980656,-9915.856854
171.091143,-287.138712,1435.693560,-9494.720077
171.093706,-1052.841944,1052.841944,-9896.714274
171.096268,5264.209720,-248.853550,-9628.718142
171.098830,-2488.535504,516.849682,-11734.402030
171.101393,3024.527766,1071.984525,-8882.157491
171.103955,-3847.658741,1741.974853,-9169.296203
171.106518,2852.244539,95.712904,-10375.278794
171.109080,3579.662610,-1933.400661,-10375.278794
171.111642,-4115.654872,2297.109696,-9360.722011
171.114205,1837.687757,3847.658741,-8422.735552
171.116767,-4919.643266,-669.990328,-10604.989763
171.119329,2143.969050,1627.119368,-9035.298138
171.121891,267.996131,-784.845813,-10107.282662
171.124453,-1052.841944,2067.398726,-9820.143950
171.127015,172.283227,1818.545176,-9934.999435
171.129577,-1282.552914,478.564520,-10643.274925
171.132139,689.132909,1473.978722,-9686.145885
171.134701,-19.142581,497.707101,-10011.569758
171.137263,-172.283227,1799.402595,-9934.999435
171.139825,593.420005,574.277424,-10011.569758
171.142387,-248.853550,669.990328,-9954.142016
171.144949,-57.427742,1512.263883,-9609.575562
171.147511,-287.138712,38.285162,-9954.142016
171.150073,38.285162,918.843878,-9667.003304
171.152635,-38.285162,784.845813,-10260.423309
171.155197,-401.994197,708.275490,-9896.714274
171.157759,133.998066,516.849682,-9494.720077
171.160321,-38.285162,1320.838075,-10030.712339
171.162883,593.420005,2067.398726,-10356.136213
171.165446,-172.283227,1359.123237,-10279.565890
171.168008,-459.421939,516.849682,-9915.856854
171.170570,1397.408398,1205.982590,-9743.573627
171.173132,38.285162,-153.140646,-10413.563955
171.175694,133.998066,555.134843,-9820.143950
171.178256,-2163.111630,2756.531635,-9992.427178
171.180818,2354.537438,842.273555,-9781.858789
171.183380,325.423874,-497.707101,-10432.706536
171.185942,1167.697429,1071.984525,-10356.136213
171.188504,1359.123237,3024.527766,-8863.014910
171.191066,-2718.246474,-1856.830338,-10892.128475
171.193628,1397.408398,1550.549045,-8499.305875
171.196190,-248.853550,-2029.113565,-10777.272990
171.198752,5742.774240,2584.248408,-9915.856854
171.201314,-689.132909,3081.955509,-10356.136213
171.203876,-172.283227,-2067.398726,-11160.124606
171.206438,1397.408398,746.560651,-8633.303941
171.209000,1071.984525,-937.986459,-11026.126541
171.211562,2316.252277,1244.267752,-10834.700733
171.214124,-478.564520,1205.982590,-10164.710405
171.216686,-306.281293,612.562586,-9188.438784
171.219248,3024.527766,-957.129040,-9609.575562
171.221810,-114.855485,344.566454,-9781.858789
171.224372,287.138712,401.994197,-10432.706536
171.226934,-650.847747,1186.840010,-9513.862658
171.229496,-210.568389,440.279358,-10222.138147
171.232058,1435.693560,555.134843,-9609.575562
171.234620,325.423874,-861.416136,-10509.276859
171.237182,555.134843,1052.841944,-9590.432981
171.239744,172.283227,229.710970,-10202.995566
171.242306,746.560651,325.423874,-9820.143950
171.244868,-95.712904,689.132909,-9762.716208
171.247430,57.427742,344.566454,-9973.284597
171.249991,1091.127106,267.996131,-9705.288466
171.252553,1320.838075,-708.275490,-10049.854920
171.255115,440.279358,497.707101,-10298.708470
171.257677,1799.402595,-2009.970984,-10413.563955
171.260239,440.279358,1473.978722,-8939.585234
171.262801,1435.693560,1282.552914,-10088.140082
171.265362,-421.136778,-440.279358,-10145.567824
171.267924,1933.400661,-401.994197,-10126.425243
171.270486,708.275490,1435.693560,-10470.991698
171.273048,497.707101,-229.710970,-10892.128475
171.275610,421.136778,459.421939,-8327.022648
171.278172,4153.940034,-1071.984525,-9590.432981
171.280733,497.707101,2277.967115,-11676.974288
171.283295,1493.121302,631.705166,-11313.265253
171.285857,-3330.809059,765.703232,-9265.009107
171.288419,3981.656806,2545.963246,-8671.589102
171.290981,459.421939,-3273.381317,-11887.542677
171.293543,-3349.951640,3349.951640,-9131.011042
171.296104,-746.560651,3713.660675,-8556.733618
171.298666,-2086.541307,-880.558717,-11542.976222
171.301228,2641.676150,1684.547110,-9245.866526
171.303790,57.427742,-421.136778,-9705.288466
171.306352,-191.425808,1741.974853,-9379.864592
171.308914,-918.843878,1454.836141,-10241.280728
171.311475,-306.281293,-57.427742,-9973.284597
171.314037,918.843878,1895.115499,-8977.870395
171.316599,-1454.836141,1703.689691,-10662.417506
171.319161,497.707101,1033.699363,-10030.712339
171.321723,-191.425808,306.281293,-9609.575562
171.324284,-555.134843,1646.261949,-9437.292334
171.326845,325.423874,535.992262,-9992.427178
171.329406,612.562586,612.562586,-9571.290400
171.331967,497.707101,1282.552914,-10145.567824
171.334529,-803.988394,937.986459,-10528.419440
171.337090,631.705166,765.703232,-10030.712339
171.339651,-114.855485,1378.265818,-9705.288466
171.342213,-1359.123237,1301.695494,-10126.425243
171.344774,-1110.269686,1512.263883,-9628.718142
171.347335,-957.129040,1512.263883,-9724.431046
171.349896,765.703232,95.712904,-10394.421374
171.352458,593.420005,899.701298,-10260.423309
171.355019,-1588.834206,1684.547110,-10202.995566
171.357580,-2239.681954,3196.810994,-9494.720077
171.360142,-172.283227,-248.853550,-9590.432981
171.362703,-803.988394,-1531.406464,-10126.425243
171.365264,1148.554848,3158.525832,-9207.581365
171.367825,-1416.550979,-153.140646,-10068.997501
171.370387,-1416.550979,1148.554848,-10490.134278
171.372948,4230.510357,-2239.681954,-10049.854920
171.375509,-2373.680019,-593.420005,-9686.145885
171.378071,3751.945837,4153.940034,-8307.880067
171.380632,-1665.404530,-153.140646,-10202.995566
171.383193,-2507.678085,-516.849682,-10279.565890
171.385754,2450.250342,0.000000,-8977.870395
171.388316,-689.132909,-842.273555,-10528.419440
171.390877,3292.523898,2009.970984,-9054.440718
171.393438,-1607.976787,306.281293,-10509.276859
171.396000,1301.695494,765.703232,-9934.999435
171.398561,1952.543242,-38.285162,-10068.997501
171.401122,57.427742,-172.283227,-9934.999435
171.403683,-76.570323,1033.699363,-9609.575562
171.406245,76.570323,918.843878,-10126.425243
171.408806,555.134843,153.140646,-9762.716208
171.411367,459.421939,0.000000,-10107.282662
171.413928,133.998066,1263.410333,-9533.005238
171.416490,363.709035,-19.142581,-10432.706536
171.419051,478.564520,1071.984525,-9781.858789
171.421612,880.558717,133.998066,-10222.138147
171.424174,0.000000,363.709035,-9647.860723
171.426734,803.988394,-401.994197,-9896.714274
171.429295,631.705166,-516.849682,-9934.999435
171.431856,1875.972918,-114.855485,-9839.286531
171.434417,1397.408398,-344.566454,-10624.132344
171.436978,1091.127106,-133.998066,-9934.999435
171.439539,-478.564520,995.414202,-9399.007173
171.442100,325.423874,0.000000,-9954.142016
171.444660,1914.258080,-1550.549045,-10068.997501
171.447221,-76.570323,918.843878,-9877.571693
171.449782,0.000000,1741.974853,-9973.284597
171.452343,4881.358104,-191.425808,-10298.708470
171.454904,-2048.256146,-1033.699363,-10336.993632
171.457465,1225.125171,1052.841944,-8020.741355
171.460025,-4900.500685,2105.683888,-9992.427178
171.462586,593.420005,-382.851616,-11121.839445
171.465147,4115.654872,2220.539373,-8748.159426
171.467708,-267.996131,-1837.687757,-11810.972354
171.470269,1665.404530,3196.810994,-8958.727814
171.472830,-3924.229064,267.996131,-10490.134278
171.475391,3349.951640,2239.681954,-9590.432981
171.477951,746.560651,382.851616,-10949.556218
171.480512,-1780.260014,19.142581,-9992.427178
171.483073,1473.978722,2354.537438,-9188.438784
171.485634,-1493.121302,0.000000,-10490.134278
171.488195,-459.421939,306.281293,-9207.581365
171.490756,555.134843,1875.972918,-10298.708470
171.493316,-363.709035,555.134843,-11217.552349
171.495877,976.271621,1359.123237,-9647.860723
171.498438,-19.142581,1033.699363,-9762.716208
171.500999,937.986459,574.277424,-10030.712339
171.503560,-516.849682,-38.285162,-9858.429112
171.506121,-191.425808,306.281293,-9934.999435
171.508682,229.710970,708.275490,-10336.993632
171.511242,-746.560651,306.281293,-9992.427178
171.513803,-689.132909,1052.841944,-9284.151688
171.516364,-708.275490,1856.830338,-9533.005238
171.518925,-1033.699363,3101.098090,-9934.999435
171.521486,880.558717,918.843878,-10222.138147
171.524047,746.560651,-727.418070,-10049.854920
171.526607,1493.121302,210.568389,-9628.718142
171.529168,-3483.949706,2488.535504,-9418.149754
171.531729,401.994197,1971.685822,-8939.585234
171.534289,497.707101,-306.281293,-10451.849117
171.536850,382.851616,114.855485,-11006.983960
171.539411,1378.265818,3330.809059,-8939.585234
171.541971,-3311.666478,-1339.980656,-10356.136213
171.544532,-133.998066,1818.545176,-9035.298138
171.547092,2009.970984,-1971.685822,-11045.269122
171.549653,4613.361973,1071.984525,-10509.276859
171.552214,-1646.261949,4153.940034,-10088.140082
171.554774,-382.851616,-2239.681954,-10490.134278
171.557335,-555.134843,1627.119368,-8059.026517
171.559896,1703.689691,-1033.699363,-10853.843314
171.562456,727.418070,-267.996131,-10892.128475
171.565017,-401.994197,1359.123237,-9169.296203
171.567577,-746.560651,478.564520,-9513.862658
171.570138,2392.822600,114.855485,-10049.854920
171.572699,593.420005,248.853550,-9954.142016
171.575259,516.849682,-976.271621,-10336.993632
171.577820,-784.845813,1071.984525,-9092.725880
171.580381,401.994197,708.275490,-10145.567824
171.582941,1033.699363,95.712904,-9934.999435
171.585502,-555.134843,306.281293,-10030.712339
171.588062,535.992262,1320.838075,-9743.573627
171.590623,555.134843,-344.566454,-10241.280728
171.593184,612.562586,612.562586,-9360.722011
171.595744,1014.556782,631.705166,-9533.005238
171.598305,1339.980656,-478.564520,-10279.565890
171.600866,1397.408398,-133.998066,-9934.999435
171.603426,2469.392923,-325.423874,-10068.997501
171.605987,2182.254211,-1186.840010,-10241.280728
171.608547,957.129040,497.707101,-9781.858789
171.611108,-95.712904,593.420005,-9858.429112
171.613669,2986.242605,-306.281293,-9801.001370
171.616229,287.138712,-325.423874,-10758.130410
171.618790,669.990328,-76.570323,-10279.565890
171.621351,-1205.982590,1684.547110,-8346.165229
171.623911,4728.217458,-153.140646,-9801.001370
171.626472,-1052.841944,-555.134843,-12193.823970
171.629032,1148.554848,-306.281293,-8805.587168
171.631593,-3158.525832,937.986459,-8614.161360
171.634153,2335.394858,2718.246474,-8518.448456
171.636713,3445.664544,-3560.520029,-11657.831707
171.639273,-4287.938099,2813.959378,-9781.858789
171.641833,0.000000,3349.951640,-8882.157491
171.644393,-4211.367776,172.283227,-11121.839445
171.646953,2928.814862,2277.967115,-8977.870395
171.649514,-1167.697429,38.285162,-9896.714274
171.652074,-574.277424,1397.408398,-9781.858789
171.654634,-19.142581,1761.117434,-9513.862658
171.657194,-1416.550979,-153.140646,-10624.132344
171.659754,114.855485,1933.400661,-9418.149754
171.662314,-1512.263883,-191.425808,-10585.847182
171.664874,172.283227,1607.976787,-9054.440718
171.667435,-1110.269686,1014.556782,-9877.571693
171.669995,-574.277424,1014.556782,-9456.434915
171.672555,440.279358,516.849682,-9571.290400
171.675115,-344.566454,76.570323,-10317.851051
171.677675,803.988394,937.986459,-9820.143950
171.680235,-210.568389,1148.554848,-10413.563955
171.682795,-497.707101,1454.836141,-10911.271056
171.685356,-1684.547110,1167.697429,-9992.427178
171.687916,-1205.982590,2526.820666,-9150.153622
171.690476,38.285162,1473.978722,-9915.856854
171.693036,19.142581,-421.136778,-10604.989763
171.695596,-823.130974,325.423874,-9724.431046
171.698156,-2431.107762,3005.385186,-9245.866526
171.700716,535.992262,669.990328,-9571.290400
171.703277,459.421939,-784.845813,-10528.419440
171.705837,746.560651,2699.103893,-9590.432981
171.708397,-727.418070,2316.252277,-9590.432981
171.710957,-1531.406464,-287.138712,-11083.554283
171.713517,3828.516160,-995.414202,-9016.155557
171.716077,-325.423874,-1397.408398,-10394.421374
171.718637,5781.059402,2163.111630,-9686.145885
171.721198,-2392.822600,1320.838075,-9820.143950
171.723758,-1856.830338,-957.129040,-10279.565890
171.726318,2143.969050,-1703.689691,-9054.440718
171.728878,-1435.693560,-306.281293,-9571.290400
171.731438,2220.539373,803.988394,-9245.866526
171.733998,-2143.969050,-765.703232,-11064.411702
171.736558,421.136778,1397.408398,-9571.290400
171.739118,2316.252277,133.998066,-10068.997501
171.741678,803.988394,535.992262,-9915.856854
171.744237,267.996131,535.992262,-10030.712339
171.746797,-153.140646,-153.140646,-9839.286531
171.749357,803.988394,995.414202,-9552.147819
171.751917,1301.695494,38.285162,-10336.993632
171.754477,-248.853550,-114.855485,-9475.577496
171.757037,95.712904,1071.984525,-9552.147819
171.759596,937.986459,421.136778,-10222.138147
171.762156,229.710970,689.132909,-9360.722011
171.764716,459.421939,-325.423874,-9686.145885
171.767276,1205.982590,880.558717,-9992.427178
171.769836,2354.537438,-1186.840010,-10432.706536
171.772395,880.558717,-440.279358,-9992.427178
171.774955,497.707101,669.990328,-9973.284597
171.777515,-2316.252277,574.277424,-9973.284597
171.780075,1837.687757,-1014.556782,-9379.864592
171.782635,191.425808,-191.425808,-10145.567824
171.785195,-382.851616,1416.550979,-9973.284597
171.787754,3522.234867,727.418070,-9513.862658
171.790314,-1014.556782,-95.712904,-9839.286531
171.792874,1741.974853,1761.117434,-9896.714274
171.795434,-3024.527766,1684.547110,-10719.845248
171.797994,-3120.240670,-1320.838075,-10107.282662
171.800554,3158.525832,3924.229064,-7523.034254
171.803113,95.712904,-2067.398726,-11925.827838
171.805673,-210.568389,3771.088418,-8614.161360
171.808233,-2469.392923,1435.693560,-10049.854920
171.810793,555.134843,861.416136,-10470.991698
171.813353,2775.674216,1646.261949,-9973.284597
171.815913,-2431.107762,287.138712,-9858.429112
171.818472,861.416136,1397.408398,-9513.862658
171.821032,-880.558717,1914.258080,-10375.278794
171.823592,1454.836141,995.414202,-10030.712339
171.826152,-57.427742,1129.412267,-9762.716208
171.828712,-1856.830338,38.285162,-10509.276859
171.831272,1397.408398,1895.115499,-9131.011042
171.833831,-1110.269686,976.271621,-10336.993632
171.836391,1052.841944,727.418070,-10030.712339
171.838951,382.851616,95.712904,-10164.710405
171.841510,478.564520,803.988394,-9934.999435
171.844070,-287.138712,459.421939,-10202.995566
171.846630,-937.986459,842.273555,-9992.427178
171.849189,-440.279358,2009.970984,-9284.151688
171.851749,-1531.406464,2258.824534,-9609.575562
171.854309,440.279358,344.566454,-9934.999435
171.856868,210.568389,153.140646,-9456.434915
171.859428,-1129.412267,306.281293,-10011.569758
171.861988,-421.136778,2679.961312,-9513.862658
171.864547,172.283227,382.851616,-9992.427178
171.867107,650.847747,-459.421939,-10356.136213
171.869667,1320.838075,2201.396792,-9552.147819
171.872226,-1952.543242,1952.543242,-9418.149754
171.874786,-995.414202,363.709035,-11179.267187
171.877346,3139.383251,-1741.974853,-9762.716208
171.879905,-2124.826469,-1607.976787,-9992.427178
171.882465,2450.250342,3445.664544,-8805.587168
171.885024,-1339.980656,-1110.269686,-10413.563955
171.887584,-1416.550979,1129.412267,-9858.429112
171.890144,3024.527766,-401.994197,-10202.995566
171.892703,-1301.695494,-727.418070,-9992.427178
171.895263,1761.117434,1205.982590,-9035.298138
171.897823,-1359.123237,-382.851616,-10681.560086
171.900382,-114.855485,593.420005,-9743.573627
171.902942,1225.125171,114.855485,-9915.856854
171.905502,650.847747,-153.140646,-10088.140082
171.908061,516.849682,1531.406464,-9609.575562
171.910621,267.996131,-631.705166,-10470.991698
171.913181,-19.142581,612.562586,-9934.999435
171.915740,-861.416136,1282.552914,-9590.432981
171.918300,1359.123237,210.568389,-9284.151688
171.920860,-382.851616,-153.140646,-9896.714274
171.923419,1110.269686,1110.269686,-9973.284597
171.925979,114.855485,-497.707101,-10356.136213
171.928539,2297.109696,325.423874,-9667.003304
171.931098,1071.984525,-210.568389,-10011.569758
171.933658,1875.972918,-880.558717,-10030.712339
171.936218,-229.710970,593.420005,-9858.429112
171.938777,-535.992262,535.992262,-9896.714274
171.941336,1129.412267,-1014.556782,-9896.714274
171.943895,1033.699363,19.142581,-9973.284597
171.946454,114.855485,803.988394,-10547.562021
171.949013,3273.381317,401.994197,-9839.286531
171.951572,-976.271621,-880.558717,-9801.001370
171.954131,2488.535504,631.705166,-9571.290400
171.956691,-3771.088418,1703.689691,-11006.983960
171.959250,-2565.105827,535.992262,-9915.856854
171.961809,3158.525832,3215.953574,-8269.594906
171.964368,-382.851616,-2048.256146,-11715.259450
171.966927,-995.414202,3790.230998,-8863.014910
171.969486,-1588.834206,669.990328,-9762.716208
171.972045,-325.423874,1033.699363,-10413.563955
171.974605,2488.535504,1244.267752,-10317.851051
171.977164,-1110.269686,76.570323,-9609.575562
171.979723,-38.285162,1837.687757,-9686.145885
171.982282,344.566454,1454.836141,-10107.282662
171.984841,669.990328,555.134843,-10222.138147
171.987400,-57.427742,2009.970984,-9073.583299
171.989959,-880.558717,-401.994197,-10738.987829
171.992518,306.281293,1129.412267,-9667.003304
171.995078,287.138712,38.285162,-9877.571693
171.997637,172.283227,1512.263883,-9667.003304
172.000196,153.140646,-248.853550,-10662.417506
172.002755,-421.136778,937.986459,-9475.577496
172.005314,746.560651,1148.554848,-9973.284597
172.007873,-746.560651,823.130974,-10643.274925
172.010432,-57.427742,1588.834206,-9226.723946
172.012992,497.707101,1186.840010,-9418.149754
172.015551,-574.277424,1397.408398,-10049.854920
172.018110,-153.140646,325.423874,-10528.419440
172.020669,-1416.550979,2622.533570,-9494.720077
172.023228,1512.263883,803.988394,-10241.280728
172.025787,57.427742,287.138712,-10413.563955
172.028346,650.847747,2124.826469,-9609.575562
172.030905,-478.564520,1933.400661,-9724.431046
172.033465,-1875.972918,-191.425808,-11389.835576
172.036024,2220.539373,842.273555,-8652.446522
172.038583,-440.279358,-2737.389054,-10758.130410
172.041142,3885.943902,3388.236802,-9245.866526
172.043700,-1052.841944,363.709035,-10317.851051
172.046259,-976.271621,-344.566454,-10107.282662
172.048818,1761.117434,-1205.982590,-9954.142016
172.051377,229.710970,0.000000,-9437.292334
172.053936,2660.818731,363.709035,-9781.858789
172.056494,-1607.976787,248.853550,-10853.843314
172.059053,306.281293,612.562586,-10049.854920
172.061612,2450.250342,382.851616,-9418.149754
172.064171,57.427742,-784.845813,-10317.851051
172.066730,57.427742,1205.982590,-9513.862658
172.069288,287.138712,497.707101,-9877.571693
172.071847,1110.269686,248.853550,-10317.851051
172.074406,153.140646,-861.416136,-10145.567824
172.076965,957.129040,689.132909,-8843.872330
172.079524,1263.410333,-937.986459,-9724.431046
172.082083,287.138712,478.564520,-9667.003304
172.084641,784.845813,669.990328,-10011.569758
172.087200,1856.830338,-880.558717,-9973.284597
172.089759,1225.125171,-899.701298,-10145.567824
172.092318,1378.265818,497.707101,-9896.714274
172.094877,-727.418070,555.134843,-10068.997501
172.097435,593.420005,191.425808,-9724.431046
172.099994,765.703232,287.138712,-10566.704602
172.102553,1473.978722,210.568389,-10183.852986
172.105112,-689.132909,57.427742,-9781.858789
172.107671,4096.512291,803.988394,-9341.579430
172.110229,-957.129040,-76.570323,-11485.548480
172.112788,95.712904,306.281293,-10049.854920
172.115347,-3445.664544,2603.390989,-9073.583299
172.117906,2373.680019,3311.666478,-7771.887805
172.120465,2239.681954,-2431.107762,-11676.974288
172.123023,-3694.518094,1761.117434,-10126.425243
172.125582,-287.138712,2794.816797,-8422.735552
172.128141,-3445.664544,765.703232,-10394.421374
172.130700,2909.672282,1569.691626,-9533.005238
172.133259,-1856.830338,267.996131,-10164.710405
172.135817,-57.427742,440.279358,-9341.579430
172.138376,-1110.269686,2335.394858,-9858.429112
172.140935,-191.425808,-153.140646,-10968.698798
172.143493,-497.707101,1646.261949,-8288.737486
172.146052,-1627.119368,689.132909,-9992.427178
172.148611,669.990328,2297.109696,-9915.856854
172.151169,-1167.697429,-191.425808,-10356.136213
172.153728,-191.425808,1397.408398,-9245.866526
172.156286,191.425808,114.855485,-10528.419440
172.158845,-210.568389,478.564520,-9801.001370
172.161403,19.142581,1033.699363,-9399.007173
172.163962,-555.134843,918.843878,-9992.427178
172.166520,-861.416136,1627.119368,-9992.427178
172.169079,-306.281293,2124.826469,-9437.292334
172.171637,-421.136778,191.425808,-10241.280728
172.174196,-1531.406464,899.701298,-10068.997501
172.176754,1110.269686,1971.685822,-9341.579430
172.179313,-57.427742,114.855485,-10298.708470
172.181871,-248.853550,38.285162,-10911.271056
172.184430,2507.678085,2545.963246,-9131.011042
172.186988,-2373.680019,-153.140646,-9705.288466
172.189547,-612.562586,1129.412267,-10164.710405
172.192105,2067.398726,-1186.840010,-10413.563955
172.194664,-784.845813,-421.136778,-10107.282662
172.197222,-899.701298,3560.520029,-9111.868461
172.199781,-784.845813,-1646.261949,-9934.999435
172.202339,-1550.549045,2679.961312,-8365.307810
172.204898,3541.377448,-1301.695494,-11026.126541
172.207456,114.855485,-344.566454,-10624.132344
172.210015,1550.549045,1014.556782,-9150.153622
172.212573,-1033.699363,95.712904,-10126.425243
172.215132,459.421939,516.849682,-10011.569758
172.217690,1205.982590,19.142581,-9743.573627
172.220249,1531.406464,-746.560651,-10394.421374
172.222807,76.570323,1435.693560,-9762.716208
172.225366,38.285162,-593.420005,-10356.136213
172.227924,478.564520,421.136778,-9475.577496
172.230483,593.420005,325.423874,-9743.573627
172.233041,-114.855485,708.275490,-9820.143950
172.235600,133.998066,95.712904,-9858.429112
172.238159,267.996131,708.275490,-10145.567824
172.240717,1531.406464,-38.285162,-9724.431046
172.243276,1167.697429,-784.845813,-10183.852986
172.245817,689.132909,229.710970,-10107.282662
172.248358,-172.283227,-57.427742,-10451.849117
172.250899,1550.549045,210.568389,-9341.579430
172.253441,746.560651,-612.562586,-10604.989763
172.255982,459.421939,516.849682,-10222.138147
172.258523,1359.123237,-497.707101,-9552.147819
172.261064,1435.693560,1454.836141,-9035.298138
172.263606,1110.269686,0.000000,-11255.837510
172.266147,-1607.976787,1301.695494,-10222.138147
172.268688,-2947.957443,765.703232,-9724.431046
172.271229,1895.115499,3024.527766,-8690.731683
172.273770,2124.826469,-2526.820666,-10949.556218
172.276312,-4019.941968,1914.258080,-9647.860723
172.278853,-746.560651,2048.256146,-9494.720077
172.281394,-2258.824534,823.130974,-10662.417506
172.283935,3139.383251,1205.982590,-9992.427178
172.286477,-1071.984525,459.421939,-9513.862658
172.289018,-38.285162,784.845813,-9915.856854
172.291559,593.420005,2086.541307,-9877.571693
172.294100,153.140646,-76.570323,-11064.411702
172.296642,765.703232,2622.533570,-8748.159426
172.299183,-1263.410333,57.427742,-10241.280728
172.301724,1091.127106,1339.980656,-9839.286531
172.304265,76.570323,325.423874,-10126.425243
172.306807,-957.129040,1282.552914,-9839.286531
172.309348,363.709035,133.998066,-9954.142016
172.311889,-669.990328,650.847747,-9839.286531
172.314430,-363.709035,1741.974853,-9762.716208
172.316972,-76.570323,861.416136,-10241.280728
172.319513,-210.568389,2086.541307,-9743.573627
172.322054,-555.134843,1301.695494,-9705.288466
172.324595,-765.703232,248.853550,-10126.425243
172.327137,-1091.127106,1837.687757,-9494.720077
172.329678,-612.562586,1091.127106,-9647.860723
172.332219,-976.271621,382.851616,-10030.712339
172.334760,287.138712,2545.963246,-9781.858789
172.337302,153.140646,1301.695494,-9609.575562
172.339843,-1512.263883,459.421939,-10183.852986
172.342384,2354.537438,-1646.261949,-9571.290400
172.344925,-1416.550979,-1091.127106,-9973.284597
172.347469,4211.367776,3426.521963,-8480.163294
172.350012,-612.562586,-555.134843,-10451.849117
172.352555,-1646.261949,555.134843,-10394.421374
172.355098,1588.834206,-363.709035,-9609.575562
172.357642,-19.142581,-861.416136,-10356.136213
172.360185,2277.967115,478.564520,-9322.436850
172.362728,-1761.117434,76.570323,-10336.993632
172.365271,727.418070,1397.408398,-9686.145885
172.367815,1512.263883,133.998066,-10030.712339
172.370358,497.707101,-708.275490,-10451.849117
172.372901,248.853550,861.416136,-9245.866526
172.375444,-612.562586,574.277424,-9839.286531
172.377988,976.271621,765.703232,-9781.858789
172.380531,784.845813,574.277424,-10394.421374
172.383074,363.709035,803.988394,-9609.575562
172.385618,0.000000,191.425808,-9915.856854
172.388161,861.416136,593.420005,-9647.860723
172.390704,1646.261949,-19.142581,-9724.431046
172.393247,1378.265818,-1205.982590,-10126.425243
172.395791,1359.123237,-727.418070,-10049.854920
172.398334,-19.142581,229.710970,-9571.290400
172.400877,-440.279358,-133.998066,-9705.288466
172.403420,95.712904,-325.423874,-10088.140082
172.405964,-478.564520,1110.269686,-9341.579430
172.408507,3215.953574,-382.851616,-10088.140082
172.411050,-2622.533570,-191.425808,-9877.571693
172.413593,1263.410333,880.558717,-8767.302006
172.416137,-4766.502619,2679.961312,-9992.427178
172.418680,1914.258080,574.277424,-11274.980091
172.421223,3713.660675,1531.406464,-9590.432981
172.423767,-1301.695494,-957.129040,-10930.413637
172.426310,-267.996131,2660.818731,-8690.731683
172.428838,-2679.961312,421.136778,-9973.284597
172.431366,1761.117434,1856.830338,-9360.722011
172.433895,1531.406464,210.568389,-10413.563955
172.436423,-2392.822600,-133.998066,-9437.292334
172.438951,76.570323,2622.533570,-9628.718142
172.441480,229.710970,1033.699363,-10126.425243
172.444008,95.712904,957.129040,-10049.854920
172.446536,-727.418070,727.418070,-9513.862658
172.449065,-669.990328,803.988394,-10030.712339
172.451593,1052.841944,708.275490,-9667.003304
172.454121,-1837.687757,1052.841944,-10049.854920
172.456650,899.701298,1378.265818,-10126.425243
172.459178,-803.988394,746.560651,-9915.856854
172.461706,-133.998066,1416.550979,-9896.714274
172.464235,-325.423874,2086.541307,-9475.577496
172.466763,-1110.269686,1952.543242,-9954.142016
172.469291,0.000000,823.130974,-10049.854920
172.471820,-1091.127106,803.988394,-10068.997501
172.474348,19.142581,2469.392923,-9533.005238
172.476876,114.855485,516.849682,-10049.854920
172.479405,-918.843878,746.560651,-9973.284597
172.481933,2871.387120,2622.533570,-9150.153622
172.484462,-2258.824534,-210.568389,-10375.278794
172.486990,-861.416136,1091.127106,-10356.136213
172.489518,191.425808,-1722.832272,-10049.854920
172.492047,995.414202,-1033.699363,-10566.704602
172.494575,1033.699363,3311.666478,-8461.020714
172.497103,-1512.263883,-2967.100024,-10011.569758
172.499632,-1665.404530,1627.119368,-9111.868461
172.502160,2048.256146,-689.132909,-10796.415571
172.504688,133.998066,-401.994197,-10336.993632
172.507217,3043.670347,382.851616,-9322.436850
172.509745,-2660.818731,-210.568389,-10011.569758
172.512273,1320.838075,689.132909,-9513.862658
172.514802,784.845813,306.281293,-9475.577496
172.517330,1014.556782,-631.705166,-10719.845248
172.519858,593.420005,861.416136,-9686.145885
172.522387,-574.277424,229.710970,-9762.716208
172.524915,1129.412267,861.416136,-9475.577496
172.527443,19.142581,114.855485,-10049.854920
172.529972,574.277424,880.558717,-9667.003304
172.532500,784.845813,114.855485,-9973.284597
172.535028,1033.699363,95.712904,-10011.569758
172.537557,1684.547110,-669.990328,-9705.288466
172.540085,1550.549045,-535.992262,-9973.284597
172.542613,-133.998066,76.570323,-10490.134278
172.545142,555.134843,535.992262,-9667.003304
172.547670,344.566454,114.855485,-9628.718142
172.550203,784.845813,1033.699363,-9915.856854
172.552736,2871.387120,-95.712904,-10451.849117
172.555269,-1416.550979,708.275490,-9284.151688
172.557802,2048.256146,1282.552914,-9609.575562
172.560335,-2239.681954,2469.392923,-10758.130410
172.562867,-2297.109696,-1282.552914,-10490.134278
172.565400,3139.383251,3732.803256,-7963.313613
172.567933,-516.849682,-2335.394858,-12653.245909
172.570466,-1875.972918,3866.801322,-8690.731683
172.572999,-1627.119368,1588.834206,-9284.151688
172.575532,-421.136778,899.701298,-10681.560086
172.578065,1531.406464,899.701298,-10356.136213
172.580598,-3483.949706,1033.699363,-8882.157491
172.583131,440.279358,57.427742,-9628.718142
172.585664,-1091.127106,1856.830338,-9877.571693
172.588197,382.851616,1129.412267,-10030.712339
172.590730,612.562586,1167.697429,-9705.288466
172.593263,-1110.269686,-382.851616,-10643.274925
172.595796,-306.281293,1397.408398,-8958.727814
172.598329,-363.709035,153.140646,-9820.143950
172.600862,784.845813,727.418070,-9992.427178
172.603395,-957.129040,612.562586,-10222.138147
172.605928,-976.271621,937.986459,-9839.286531
172.608460,612.562586,1205.982590,-9973.284597
172.610993,-535.992262,1569.691626,-9667.003304
172.613526,-401.994197,1933.400661,-9705.288466
172.616059,-440.279358,650.847747,-10279.565890
172.618592,-172.283227,555.134843,-9686.145885
172.621125,325.423874,650.847747,-9667.003304
172.623658,-861.416136,2201.396792,-9686.145885
172.626191,2067.398726,2086.541307,-9954.142016
172.628724,-2641.676150,-1225.125171,-11294.122672
172.631260,459.421939,1397.408398,-8078.169098
172.633796,382.851616,-1607.976787,-9915.856854
172.636332,3962.514226,1665.404530,-10911.271056
172.638869,95.712904,2622.533570,-10413.563955
172.641405,1359.123237,-2392.822600,-9934.999435
172.643941,-1359.123237,2890.529701,-9054.440718
172.646477,3924.229064,-1454.836141,-11351.550414
172.649013,1473.978722,-382.851616,-9839.286531
172.651550,-382.851616,-19.142581,-9820.143950
172.654086,-1397.408398,555.134843,-9896.714274
172.656622,1263.410333,497.707101,-9399.007173
172.659158,1129.412267,153.140646,-9609.575562
172.661694,746.560651,-440.279358,-10719.845248
172.664230,287.138712,555.134843,-9724.431046
172.666767,1550.549045,95.712904,-9494.720077
172.669303,133.998066,535.992262,-9379.864592
172.671839,-248.853550,1052.841944,-9360.722011
172.674375,229.710970,421.136778,-10068.997501
172.676911,1167.697429,-267.996131,-10222.138147
172.679447,918.843878,38.285162,-9667.003304
172.681984,3273.381317,-1320.838075,-9954.142016
172.684520,-612.562586,-19.142581,-10317.851051
172.687056,976.271621,248.853550,-10107.282662
172.689592,229.710970,306.281293,-9513.862658
172.692128,823.130974,382.851616,-9820.143950
172.694664,3043.670347,-957.129040,-10336.993632
172.697201,1952.543242,842.273555,-9513.862658
172.699737,478.564520,976.271621,-10624.132344
172.702273,-1914.258080,-38.285162,-10432.706536
172.704809,-2833.101958,976.271621,-8863.014910
172.707345,2163.111630,2660.818731,-8499.305875
172.709881,1761.117434,-2641.676150,-11925.827838
172.712418,-2718.246474,3330.809059,-9762.716208
172.714954,287.138712,2182.254211,-9418.149754
172.717490,-1818.545176,708.275490,-11102.696864
172.720026,3024.527766,1378.265818,-9877.571693
172.722562,-1339.980656,229.710970,-9667.003304
172.725098,899.701298,746.560651,-9743.573627
172.727635,-440.279358,2067.398726,-9954.142016
172.730171,267.996131,689.132909,-10853.843314
172.732693,382.851616,1148.554848,-9150.153622
172.735216,-1359.123237,-325.423874,-10107.282662
172.737739,574.277424,1799.402595,-9418.149754
172.740261,-555.134843,287.138712,-10375.278794
172.742784,708.275490,842.273555,-9686.145885
172.745307,-38.285162,478.564520,-9954.142016
172.747829,-478.564520,1627.119368,-9724.431046
172.750352,-1741.974853,2737.389054,-9054.440718
172.752875,-669.990328,1148.554848,-10279.565890
172.755397,-2220.539373,2048.256146,-9934.999435
172.757920,267.996131,1033.699363,-9207.581365
172.760443,-650.847747,210.568389,-9915.856854
172.762965,-287.138712,1359.123237,-10490.134278
172.765488,38.285162,3311.666478,-9781.858789
172.768011,-57.427742,267.996131,-10279.565890
172.770533,-842.273555,555.134843,-11045.269122
172.773056,2928.814862,-1378.265818,-9590.432981
172.775579,-1071.984525,-1454.836141,-9915.856854
172.778101,3924.229064,3503.092286,-8863.014910
172.780624,-669.990328,-153.140646,-11140.982026
172.783147,-612.562586,267.996131,-9705.288466
172.785669,-344.566454,-114.855485,-9513.862658
172.788192,344.566454,-516.849682,-9724.431046
172.790715,2679.961312,38.285162,-9360.722011
172.793237,-1110.269686,-76.570323,-10815.558152
172.795760,-76.570323,1110.269686,-10183.852986
172.798283,1761.117434,459.421939,-9552.147819
172.800805,1607.976787,-842.273555,-10183.852986
172.803328,-382.851616,746.560651,-9877.571693
172.805851,421.136778,459.421939,-9724.431046
172.808373,153.140646,401.994197,-9494.720077
172.810896,-325.423874,976.271621,-10126.425243
172.813419,995.414202,-306.281293,-9781.858789
172.815941,784.845813,593.420005,-8977.870395
172.818464,880.558717,-191.425808,-10107.282662
172.820987,2507.678085,-1435.693560,-10432.706536
172.823509,191.425808,-153.140646,-9647.860723
172.826032,1818.545176,-459.421939,-9915.856854
172.828555,210.568389,593.420005,-10088.140082
172.831077,631.705166,440.279358,-9628.718142
172.833605,2335.394858,-918.843878,-9973.284597
172.836133,823.130974,325.423874,-9915.856854
172.838661,727.418070,1627.119368,-10222.138147
172.841189,-2048.256146,1473.978722,-10298.708470
172.843717,-2909.672282,363.709035,-9628.718142
172.846245,2201.396792,2641.676150,-8767.302006
172.848773,765.703232,-2220.539373,-11983.255581
172.851301,-2986.242605,3617.947771,-9494.720077
172.853829,-1550.549045,2048.256146,-9150.153622
172.856357,-2105.683888,899.701298,-10528.419440
172.858885,2335.394858,1837.687757,-9858.429112
172.861413,-2239.681954,803.988394,-9820.143950
172.863941,95.712904,957.129040,-9781.858789
172.866469,-803.988394,2086.541307,-9724.431046
172.868997,114.855485,1263.410333,-10547.562021
172.871525,-287.138712,1531.406464,-9226.723946
172.874053,-631.705166,-478.564520,-10375.278794
172.876581,344.566454,1895.115499,-9571.290400
172.879109,-459.421939,229.710970,-10011.569758
172.881637,-210.568389,957.129040,-9839.286531
172.884165,478.564520,899.701298,-10279.565890
172.886693,-1014.556782,1052.841944,-9915.856854
172.889221,-1320.838075,2048.256146,-9169.296203
172.891749,-516.849682,1818.545176,-9915.856854
172.894277,-2048.256146,2277.967115,-9934.999435
172.896805,2297.109696,-382.851616,-9820.143950
172.899333,-1416.550979,306.281293,-10336.993632
172.901861,-229.710970,3196.810994,-9743.573627
172.904389,1761.117434,1703.689691,-8939.585234
172.906917,-3292.523898,-1531.406464,-11428.120738
172.909445,3158.525832,574.277424,-8288.737486
172.911973,-1167.697429,-1607.976787,-10375.278794
172.914501,4575.076811,1703.689691,-9934.999435
172.917029,-803.988394,1761.117434,-11466.405899
172.919557,-497.707101,-708.275490,-9973.284597
172.922085,1780.260014,1531.406464,-8863.014910
172.924613,669.990328,-1263.410333,-10662.417506
172.927141,3560.520029,248.853550,-9877.571693
172.929669,-401.994197,95.712904,-10241.280728
172.932197,-689.132909,114.855485,-9724.431046
172.934730,784.845813,1129.412267,-9073.583299
172.937263,1091.127106,19.142581,-9934.999435
172.939796,727.418070,497.707101,-10375.278794
172.942329,976.271621,133.998066,-10088.140082
172.944862,229.710970,976.271621,-9284.151688
172.947395,478.564520,669.990328,-10145.567824
172.949928,880.558717,57.427742,-10030.712339
172.952461,325.423874,382.851616,-9628.718142
172.954994,1186.840010,440.279358,-9820.143950
172.957527,1990.828403,-1952.543242,-10451.849117
172.960059,-382.851616,-325.423874,-9303.294269
172.962592,267.996131,-363.709035,-9590.432981
172.965125,-1225.125171,689.132909,-10030.712339
172.967658,287.138712,1129.412267,-9781.858789
172.970191,3771.088418,-803.988394,-9896.714274
172.972724,-823.130974,-516.849682,-9858.429112
172.975257,803.988394,1856.830338,-9360.722011
172.977790,-5513.063270,2871.387120,-10375.278794
172.980323,631.705166,-1550.549045,-11466.405899
172.982856,2737.389054,3062.812928,-8231.309744
172.985389,267.996131,-631.705166,-11313.265253
172.987922,-1071.984525,2507.678085,-9954.142016
172.990455,-2545.963246,1378.265818,-9667.003304
172.992988,650.847747,1512.263883,-9915.856854
172.995520,880.558717,976.271621,-10681.560086
172.998053,-1952.543242,669.990328,-9647.860723
173.000586,95.712904,1301.695494,-9035.298138
173.003119,-401.994197,1320.838075,-9628.718142
173.005652,689.132909,-153.140646,-10604.989763
173.008185,-497.707101,1110.269686,-9169.296203
173.010718,19.142581,267.996131,-9915.856854
173.013251,191.425808,1129.412267,-10049.854920
173.015784,325.423874,631.705166,-10279.565890
173.018317,172.283227,995.414202,-10298.708470
173.020850,-708.275490,1129.412267,-10049.854920
173.023383,-861.416136,1512.263883,-9973.284597
173.025916,-957.129040,2947.957443,-9092.725880
173.028448,-937.986459,2009.970984,-10202.995566
173.030981,650.847747,631.705166,-10011.569758
173.033514,459.421939,-133.998066,-10260.423309
173.036035,-765.703232,1263.410333,-10164.710405
173.038555,1761.117434,3809.373579,-8977.870395
173.041076,-1818.545176,-1282.552914,-10317.851051
173.043596,-555.134843,612.562586,-10049.854920
173.046116,2316.252277,-1244.267752,-10126.425243
173.048637,-1359.123237,-401.994197,-10145.567824
173.051157,2009.970984,4211.367776,-8097.311678
173.053678,-727.418070,-2220.539373,-10432.706536
173.056198,-2105.683888,229.710970,-9475.577496
173.058718,2794.816797,-497.707101,-11045.269122
173.061239,114.855485,-57.427742,-10260.423309
173.063759,3905.086483,-114.855485,-9686.145885
173.066280,-1129.412267,248.853550,-10451.849117
173.068800,1378.265818,287.138712,-10011.569758
173.071320,1339.980656,114.855485,-9705.288466
173.073841,1263.410333,-803.988394,-10241.280728
173.076361,765.703232,612.562586,-9705.288466
173.078882,689.132909,-363.709035,-10126.425243
173.081402,-248.853550,842.273555,-9437.292334
173.083922,516.849682,229.710970,-10183.852986
173.086443,746.560651,76.570323,-9686.145885
173.088963,669.990328,95.712904,-9724.431046
173.091484,3158.525832,-1454.836141,-10585.847182
173.094004,1761.117434,-535.992262,-10202.995566
173.096524,497.707101,-650.847747,-10336.993632
173.099045,-459.421939,1129.412267,-10145.567824
173.101565,516.849682,325.423874,-9743.573627
173.104086,4517.649069,-516.849682,-9475.577496
173.106606,-1339.980656,-899.701298,-10700.702667
173.109126,937.986459,3235.096155,-8997.012976
173.111647,-3388.236802,3273.381317,-11006.983960
173.114167,114.855485,-363.709035,-11121.839445
173.116688,3330.809059,4077.369710,-9265.009107
173.119208,-1110.269686,-114.855485,-10643.274925
173.121728,-325.423874,3273.381317,-9552.147819
173.124249,-3407.379382,842.273555,-9896.714274
173.126769,2124.826469,1799.402595,-9686.145885
173.129290,-76.570323,1378.265818,-10987.841379
173.131810,-2488.535504,784.845813,-9858.429112
173.134330,-287.138712,1454.836141,-9035.298138
173.136857,-765.703232,1493.121302,-9705.288466
173.139384,287.138712,1378.265818,-10222.138147
173.141910,-593.420005,478.564520,-9647.860723
173.144437,-248.853550,708.275490,-9915.856854
173.146964,-612.562586,1110.269686,-10528.419440
173.149490,-19.142581,555.134843,-10202.995566
173.152017,95.712904,535.992262,-9552.147819
173.154543,-957.129040,708.275490,-9896.714274
173.157070,-267.996131,2354.537438,-10049.854920
173.159597,-1225.125171,1895.115499,-10145.567824
173.162123,38.285162,1512.263883,-10068.997501
173.164650,1569.691626,-382.851616,-9954.142016
173.167177,-746.560651,-306.281293,-9954.142016
173.169703,-497.707101,4096.512291,-9418.149754
173.172230,1282.552914,1435.693560,-9533.005238
173.174756,-3196.810994,-2220.539373,-10700.702667
173.177283,4345.365842,-574.277424,-8518.448456
173.179810,-2316.252277,-1952.543242,-10088.140082
173.182336,5455.635528,2909.672282,-9131.011042
173.184863,440.279358,210.568389,-10566.704602
173.187390,-631.705166,-1301.695494,-10566.704602
173.189916,861.416136,1933.400661,-8901.300072
173.192443,957.129040,-1014.556782,-10643.274925
173.194970,2641.676150,401.994197,-9705.288466
173.197496,-1473.978722,-133.998066,-11332.407834
173.200023,842.273555,861.416136,-9667.003304
173.202549,1129.412267,114.855485,-9418.149754
173.205076,899.701298,-440.279358,-10336.993632
173.207603,382.851616,1205.982590,-10356.136213
173.210129,363.709035,535.992262,-9839.286531
173.212656,669.990328,669.990328,-9494.720077
173.215183,1091.127106,421.136778,-10375.278794
173.217709,440.279358,306.281293,-9418.149754
173.220236,612.562586,19.142581,-9360.722011
173.222763,1378.265818,-746.560651,-10336.993632
173.225289,1129.412267,-1550.549045,-10222.138147
173.227816,-153.140646,-478.564520,-9571.290400
173.230342,19.142581,1320.838075,-9552.147819
173.232869,-133.998066,1033.699363,-10260.423309
173.235396,2699.103893,-401.994197,-9724.431046
173.237928,-2756.531635,-1761.117434,-10222.138147
173.240460,937.986459,1856.830338,-8384.450390
173.242992,-6451.049730,3158.525832,-10490.134278
173.245525,1225.125171,-516.849682,-11313.265253
173.248057,2641.676150,3579.662610,-8327.022648
173.250589,-19.142581,-2201.396792,-11810.972354
173.253121,-2488.535504,2641.676150,-9322.436850
173.255653,-2450.250342,2143.969050,-9245.866526
173.258186,2660.818731,2201.396792,-9226.723946
173.260718,-344.566454,1091.127106,-10987.841379
173.263250,-3483.949706,497.707101,-9628.718142
173.265782,-229.710970,1282.552914,-9035.298138
173.268314,57.427742,1320.838075,-9896.714274
173.270847,574.277424,784.845813,-10681.560086
173.273379,-535.992262,1167.697429,-9513.862658
173.275911,114.855485,267.996131,-10030.712339
173.278443,535.992262,497.707101,-10528.419440
173.280976,-153.140646,803.988394,-9360.722011
173.283508,-382.851616,76.570323,-10183.852986
173.286040,-497.707101,1186.840010,-9552.147819
173.288572,-1741.974853,2009.970984,-9915.856854
173.291104,-1205.982590,2641.676150,-9743.573627
173.293637,-57.427742,1339.980656,-9820.143950
173.296169,133.998066,-459.421939,-9877.571693
173.298701,-669.990328,1244.267752,-9896.714274
173.301233,1205.982590,3560.520029,-8863.014910
173.303765,-1837.687757,-1167.697429,-10528.419440
173.306298,823.130974,1416.550979,-8690.731683
173.308830,114.855485,-1416.550979,-10490.134278
173.311362,2679.961312,76.570323,-10930.413637
173.313894,-440.279358,3196.810994,-9054.440718
173.316427,-325.423874,-2009.970984,-9571.290400
173.318959,-382.851616,1416.550979,-9379.864592
173.321491,1320.838075,-995.414202,-10911.271056
173.324023,-229.710970,-229.710970,-9552.147819
173.326555,2163.111630,133.998066,-9533.005238
173.329088,-2182.254211,191.425808,-10126.425243
173.331620,1301.695494,784.845813,-9131.011042
173.334152,76.570323,153.140646,-9513.862658
173.336684,535.992262,-153.140646,-10509.276859
173.339221,1071.984525,248.853550,-9934.999435
173.341758,-516.849682,574.277424,-9226.723946
173.344295,325.423874,114.855485,-9896.714274
173.346832,133.998066,440.279358,-10107.282662
173.349369,2067.398726,-823.130974,-10088.140082
173.351906,957.129040,-497.707101,-10222.138147
173.354443,1531.406464,-1263.410333,-10375.278794
173.356980,401.994197,-784.845813,-9801.001370
173.359517,-1646.261949,1531.406464,-9762.716208
173.362054,-421.136778,1244.267752,-9743.573627
173.364591,3407.379382,-1550.549045,-9705.288466
173.367128,478.564520,325.423874,-10470.991698
173.369666,2163.111630,1359.123237,-9418.149754
173.372203,-5589.633594,3292.523898,-10145.567824
173.374740,2182.254211,-631.705166,-10700.702667
173.377277,3292.523898,2660.818731,-8269.594906
173.379814,287.138712,-516.849682,-11447.263318
173.382351,-1014.556782,3024.527766,-9781.858789
173.384888,-2450.250342,2124.826469,-9475.577496
173.387425,3177.668413,2392.822600,-8997.012976
173.389962,-172.283227,708.275490,-11121.839445
173.392499,-1914.258080,478.564520,-9820.143950
173.395036,516.849682,1359.123237,-9169.296203
173.397573,-650.847747,2545.963246,-10107.282662
173.400110,363.709035,1167.697429,-10317.851051
173.402647,-344.566454,-114.855485,-9533.005238
173.405184,-689.132909,1320.838075,-9934.999435
173.407721,1033.699363,-38.285162,-11064.411702
173.410258,401.994197,574.277424,-9724.431046
173.412795,19.142581,1990.828403,-9896.714274
173.415332,-535.992262,1684.547110,-10604.989763
173.417869,-1512.263883,2297.109696,-10164.710405
173.420406,-784.845813,2813.959378,-8939.585234
173.422943,555.134843,-325.423874,-10202.995566
173.425480,-191.425808,497.707101,-9896.714274
173.428017,-1780.260014,3273.381317,-9571.290400
173.430554,612.562586,2986.242605,-9494.720077
173.433092,-2373.680019,-1033.699363,-11676.974288
173.435629,2565.105827,-516.849682,-8135.596840
173.438166,-765.703232,-2584.248408,-9533.005238
173.440707,4977.071008,2450.250342,-10241.280728
173.443248,-861.416136,2105.683888,-10719.845248
173.445790,-153.140646,-1301.695494,-10107.282662
173.448331,803.988394,1225.125171,-9111.868461
173.450873,957.129040,-746.560651,-10375.278794
173.453414,2718.246474,-344.566454,-9820.143950
173.455956,-325.423874,-363.709035,-10241.280728
173.458497,-478.564520,-133.998066,-9992.427178
173.461039,1780.260014,172.283227,-9265.009107
173.463580,401.994197,172.283227,-9743.573627
173.466121,555.134843,1110.269686,-9992.427178
173.468663,114.855485,76.570323,-9858.429112
173.471204,344.566454,1493.121302,-9418.149754
173.473746,1071.984525,-114.855485,-10547.562021
173.476287,95.712904,-76.570323,-9667.003304
173.478829,1435.693560,516.849682,-9245.866526
173.481370,2354.537438,-1397.408398,-10490.134278
173.483911,-153.140646,-650.847747,-10145.567824
173.486453,-516.849682,1282.552914,-9667.003304
173.488994,382.851616,1320.838075,-9858.429112
173.491536,2699.103893,-38.285162,-10088.140082
173.494077,708.275490,-1110.269686,-9475.577496
173.496619,-248.853550,995.414202,-9724.431046
173.499160,-2756.531635,3081.955509,-10987.841379
173.501702,-1627.119368,555.134843,-10202.995566
173.504243,2182.254211,2852.244539,-7752.745224
173.506784,861.416136,-1263.410333,-11485.548480
173.509326,-1454.836141,2507.678085,-9954.142016
173.511867,-2603.390989,1856.830338,-9341.579430
173.514409,555.134843,1588.834206,-10375.278794
173.516950,1780.260014,114.855485,-11045.269122
173.519492,-2641.676150,401.994197,-8920.442653
173.522033,-823.130974,1301.695494,-8786.444587
173.524574,-38.285162,1512.263883,-10547.562021
173.527116,229.710970,382.851616,-11045.269122
173.529657,612.562586,593.420005,-9418.149754
173.532199,-1512.263883,803.988394,-9915.856854
173.534740,612.562586,1071.984525,-10394.421374
173.537282,612.562586,153.140646,-9820.143950
173.539823,-344.566454,1263.410333,-9781.858789
173.542368,-708.275490,1952.543242,-10566.704602
173.544914,-2297.109696,2871.387120,-9934.999435
173.547459,784.845813,1569.691626,-8690.731683
173.550004,497.707101,153.140646,-10164.710405
173.552550,1167.697429,57.427742,-10604.989763
173.555095,-631.705166,3005.385186,-9609.575562
173.557640,57.427742,2354.537438,-9896.714274
173.560186,-1550.549045,-248.853550,-11160.124606
173.562731,3694.518094,-1205.982590,-8652.446522
173.565276,-344.566454,-1684.547110,-9896.714274
173.567822,4919.643266,3311.666478,-9379.864592
173.570367,363.709035,114.855485,-10872.985894
173.572912,-976.271621,-708.275490,-10241.280728
173.575458,746.560651,957.129040,-9265.009107
173.578003,440.279358,-421.136778,-10030.712339
173.580548,2737.389054,-57.427742,-9341.579430
173.583094,-669.990328,-191.425808,-10528.419440
173.585639,-708.275490,612.562586,-9667.003304
173.588184,1397.408398,1052.841944,-9092.725880
173.590730,-76.570323,-19.142581,-10566.704602
173.593275,-267.996131,1339.980656,-10183.852986
173.595820,516.849682,153.140646,-9475.577496
173.598366,574.277424,1205.982590,-9131.011042
173.600911,612.562586,248.853550,-10872.985894
173.603456,708.275490,76.570323,-10088.140082
173.606002,1512.263883,-880.558717,-10107.282662
173.608547,1071.984525,-1646.261949,-10451.849117
173.611092,612.562586,-1052.841944,-9896.714274
173.613638,-1454.836141,1263.410333,-9207.581365
173.616183,1550.549045,0.000000,-10126.425243
173.618728,5532.205851,-1263.410333,-10145.567824
173.621274,-210.568389,-1205.982590,-10643.274925
173.623819,1435.693560,861.416136,-8575.876198
173.626364,-4479.363907,1225.125171,-9418.149754
173.628910,2699.103893,1550.549045,-9360.722011
173.631455,3196.810994,-2258.824534,-10528.419440
173.634000,-3369.094221,2354.537438,-9705.288466
173.636545,363.709035,2354.537438,-8997.012976
173.639091,-3196.810994,-325.423874,-10049.854920
173.641636,3866.801322,2603.390989,-8977.870395
173.644185,-535.992262,995.414202,-11179.267187
173.646734,-1493.121302,1569.691626,-9628.718142
173.649282,344.566454,3062.812928,-9973.284597
173.651831,-95.712904,382.851616,-10930.413637
173.654380,1110.269686,1952.543242,-8805.587168
173.656928,-478.564520,38.285162,-10222.138147
173.659477,114.855485,1129.412267,-10643.274925
173.662026,-325.423874,746.560651,-9667.003304
173.664574,555.134843,708.275490,-9533.005238
173.667123,-1091.127106,2622.533570,-10279.565890
173.669672,-2507.678085,3215.953574,-10145.567824
173.672220,421.136778,1244.267752,-9360.722011
173.674769,-899.701298,631.705166,-10164.710405
173.677318,-382.851616,95.712904,-10719.845248
173.679866,-1129.412267,2909.672282,-9035.298138
173.682415,95.712904,2048.256146,-9590.432981
173.684964,-2584.248408,-555.134843,-11638.689126
173.687512,2545.963246,-1741.974853,-8671.589102
173.690061,-2009.970984,-2029.113565,-9226.723946
173.692610,5034.498750,2526.820666,-9801.001370
173.695158,-937.986459,1550.549045,-10949.556218
173.697707,-765.703232,-2086.541307,-10068.997501
173.700256,861.416136,1416.550979,-8614.161360
173.702804,287.138712,-57.427742,-10719.845248
173.705353,2469.392923,-153.140646,-9667.003304
173.707902,-746.560651,-1167.697429,-10834.700733
173.710451,-976.271621,1167.697429,-9915.856854
173.712999,1435.693560,267.996131,-9016.155557
173.715548,-76.570323,-344.566454,-9705.288466
173.718097,440.279358,1052.841944,-10260.423309
173.720645,765.703232,-210.568389,-10049.854920
173.723194,1301.695494,535.992262,-9552.147819
173.725746,478.564520,133.998066,-10164.710405
173.728298,1129.412267,-133.998066,-10279.565890
173.730849,1416.550979,-1052.841944,-9418.149754
173.733401,459.421939,-1607.976787,-10126.425243
173.735953,38.285162,306.281293,-9992.427178
173.738505,-76.570323,1454.836141,-9284.151688
173.741057,4575.076811,-1186.840010,-10356.136213
173.743609,-76.570323,-784.845813,-10758.130410
173.746161,535.992262,2699.103893,-9379.864592
173.748712,-3101.098090,3062.812928,-10470.991698
173.751264,-1588.834206,0.000000,-10892.128475
173.753816,2756.531635,4211.367776,-8518.448456
173.756368,2105.683888,-1531.406464,-11236.694930
173.758920,-1856.830338,3349.951640,-9686.145885
173.761472,-1397.408398,2488.535504,-9379.864592
173.764023,1110.269686,1263.410333,-10030.712339
173.766575,1473.978722,516.849682,-10815.558152
173.769127,-2507.678085,1225.125171,-9265.009107
173.771679,-325.423874,1301.695494,-9226.723946
173.774231,669.990328,1148.554848,-10068.997501
173.776783,784.845813,1244.267752,-10643.274925
173.779334,880.558717,-114.855485,-9686.145885
173.781886,-1033.699363,593.420005,-9858.429112
173.784438,133.998066,823.130974,-10413.563955
173.786990,0.000000,95.712904,-9915.856854
173.789542,-555.134843,1856.830338,-9456.434915
173.792094,-2105.683888,2545.963246,-10413.563955
173.794646,-976.271621,1952.543242,-10164.710405
173.797197,-401.994197,287.138712,-9418.149754
173.799749,172.283227,-459.421939,-10624.132344
173.802301,-1646.261949,2565.105827,-9915.856854
173.804853,689.132909,2622.533570,-9207.581365
173.807405,-2603.390989,-1071.984525,-11447.263318
173.809957,2277.967115,382.851616,-8843.872330
173.812508,-363.709035,-2488.535504,-9647.860723
173.815060,4230.510357,689.132909,-10451.849117
173.817612,-1244.267752,382.851616,-11619.546546
173.820164,-287.138712,-1014.556782,-9801.001370
173.822716,1646.261949,1588.834206,-8384.450390
173.825268,-133.998066,-593.420005,-11140.982026
173.827805,3005.385186,478.564520,-9801.001370
173.830343,401.994197,-210.568389,-9762.716208
173.832880,-957.129040,937.986459,-9705.288466
173.835418,842.273555,-76.570323,-9992.427178
173.837956,1895.115499,-574.277424,-9724.431046
173.840493,-76.570323,1110.269686,-9839.286531
173.843031,306.281293,497.707101,-10528.419440
173.845568,1435.693560,612.562586,-9437.292334
173.848106,1320.838075,229.710970,-10011.569758
173.850644,708.275490,-344.566454,-10451.849117
173.853181,1875.972918,-497.707101,-9686.145885
173.855719,1473.978722,-1780.260014,-10164.710405
173.858256,-382.851616,1454.836141,-10375.278794
173.860794,344.566454,1339.980656,-9801.001370
173.863332,3426.521963,-1435.693560,-10222.138147
173.865869,-114.855485,-669.990328,-9839.286531
173.868407,-57.427742,1550.549045,-9609.575562
173.870944,-4383.651003,3043.670347,-9743.573627
173.873482,-2507.678085,-880.558717,-10624.132344
173.876020,3273.381317,4153.940034,-8193.024582
173.878557,440.279358,-1703.689691,-11485.548480
173.881095,-2928.814862,3426.521963,-8997.012976
173.883632,-2431.107762,1569.691626,-9552.147819
173.886170,1014.556782,1186.840010,-9896.714274
173.888708,1607.976787,114.855485,-10911.271056
173.891245,-2660.818731,1550.549045,-9150.153622
173.893783,287.138712,1110.269686,-9360.722011
173.896320,287.138712,1110.269686,-10164.710405
173.898858,-95.712904,918.843878,-10183.852986
173.901396,172.283227,784.845813,-9705.288466
173.903933,-210.568389,-880.558717,-10202.995566
173.906471,-344.566454,2009.970984,-9379.864592
173.909008,-95.712904,516.849682,-10145.567824
173.911546,-344.566454,1569.691626,-9858.429112
173.914084,-2871.387120,2890.529701,-9590.432981
173.916621,574.277424,1282.552914,-9609.575562
173.919159,-765.703232,937.986459,-10011.569758
173.921696,-440.279358,153.140646,-10777.272990
173.924234,1665.404530,3503.092286,-8863.014910
173.926772,-1473.978722,1225.125171,-9839.286531
173.929314,-976.271621,-421.136778,-11064.411702
173.931856,3196.810994,-2163.111630,-9628.718142
173.934398,-1665.404530,-650.847747,-9647.860723
173.936941,2756.531635,3215.953574,-8767.302006
173.939483,-880.558717,-631.705166,-10164.710405
173.942025,-1665.404530,-248.853550,-9705.288466
173.944567,1359.123237,-516.849682,-9781.858789
173.947110,-516.849682,689.132909,-9494.720077
173.949652,2105.683888,-153.140646,-9762.716208
173.952194,248.853550,-1473.978722,-10317.851051
173.954736,287.138712,612.562586,-9303.294269
173.957279,555.134843,708.275490,-9150.153622
173.959821,1148.554848,-555.134843,-10624.132344
173.962363,421.136778,899.701298,-9533.005238
173.964905,-344.566454,-57.427742,-9762.716208
173.967448,1129.412267,995.414202,-9226.723946
173.969990,95.712904,-535.992262,-10241.280728
173.972532,1167.697429,-19.142581,-9781.858789
173.975074,1110.269686,-2297.109696,-10088.140082
173.977617,-1263.410333,497.707101,-9877.571693
173.980159,-1282.552914,1684.547110,-9360.722011
173.982701,2201.396792,-842.273555,-9647.860723
173.985243,1225.125171,-306.281293,-9705.288466
173.987786,-1091.127106,114.855485,-10547.562021
173.990328,-1741.974853,1856.830338,-9475.577496
173.992870,-4938.785846,1416.550979,-9475.577496
173.995412,2316.252277,2258.824534,-8863.014910
173.997955,1129.412267,-2718.246474,-12461.820101
174.000497,-3215.953574,2775.674216,-8786.444587
174.003039,-1512.263883,2507.678085,-9131.011042
174.005581,-784.845813,995.414202,-10719.845248
174.008124,2335.394858,555.134843,-10260.423309
174.010666,-2182.254211,1359.123237,-9571.290400
174.013208,-937.986459,1416.550979,-9762.716208
174.015750,-133.998066,1990.828403,-10088.140082
174.018293,-287.138712,-114.855485,-11294.122672
174.020835,1435.693560,478.564520,-9016.155557
174.023377,-1684.547110,937.986459,-9686.145885
174.025920,-267.996131,1512.263883,-10298.708470
174.028462,-114.855485,689.132909,-10432.706536
174.031008,-1282.552914,1703.689691,-9303.294269
174.033555,-2431.107762,3196.810994,-9475.577496
174.036102,172.283227,842.273555,-9877.571693
174.038648,267.996131,535.992262,-9111.868461
174.041195,-172.283227,535.992262,-10853.843314
174.043742,2124.826469,3101.098090,-9169.296203
174.046288,-1990.828403,-76.570323,-9858.429112
174.048835,-650.847747,401.994197,-9896.714274
174.051382,3522.234867,-2143.969050,-10394.421374
174.053928,-2373.680019,-803.988394,-10126.425243
174.056475,3043.670347,3369.094221,-8097.311678
174.059022,0.000000,-1684.547110,-9896.714274
174.061568,-727.418070,382.851616,-9934.999435
174.064115,1473.978722,-516.849682,-10643.274925
174.066661,57.427742,-57.427742,-9839.286531
174.069208,2718.246474,210.568389,-9647.860723
174.071755,0.000000,-861.416136,-11006.983960
174.074301,1186.840010,823.130974,-9647.860723
174.076848,478.564520,210.568389,-9379.864592
174.079395,382.851616,593.420005,-10202.995566
174.081941,823.130974,1091.127106,-9475.577496
174.084488,1588.834206,-459.421939,-10088.140082
174.087035,133.998066,1033.699363,-9226.723946
174.089581,708.275490,-803.988394,-10164.710405
174.092128,3043.670347,-1148.554848,-9628.718142
174.094675,535.992262,-842.273555,-10183.852986
174.097221,-440.279358,1627.119368,-10222.138147
174.099768,-76.570323,478.564520,-9839.286531
174.102315,6029.912952,-957.129040,-9992.427178
174.104861,-57.427742,-727.418070,-10853.843314
174.107408,1856.830338,669.990328,-9054.440718
174.109955,-6470.192310,4019.941968,-10088.140082
174.112501,2105.683888,95.712904,-11140.982026
174.115048,2813.959378,1761.117434,-8595.018779
174.117594,-2526.820666,1799.402595,-9781.858789
174.120141,-2009.970984,1665.404530,-9839.286531
174.122688,-3388.236802,459.421939,-9322.436850
174.125234,2986.242605,1320.838075,-9322.436850
174.127781,861.416136,-191.425808,-11600.403965
174.130328,-3177.668413,1952.543242,-9456.434915
174.132874,899.701298,1359.123237,-9628.718142
174.135421,-191.425808,229.710970,-10528.419440
174.137968,708.275490,1167.697429,-9705.288466
174.140514,0.000000,459.421939,-9877.571693
174.143061,-784.845813,1129.412267,-10164.710405
174.145608,-823.130974,421.136778,-10375.278794
174.148154,-1435.693560,1875.972918,-8977.870395
174.150701,-1416.550979,2794.816797,-9322.436850
174.153251,-172.283227,1646.261949,-9686.145885
174.155802,210.568389,823.130974,-9724.431046
174.158352,210.568389,-191.425808,-10413.563955
174.160902,1378.265818,2794.816797,-9552.147819
174.163452,-1818.545176,1091.127106,-9877.571693
174.166003,-1148.554848,38.285162,-10356.136213
174.168553,3311.666478,-1837.687757,-9513.862658
174.171103,-555.134843,-823.130974,-10241.280728
174.173654,2718.246474,3196.810994,-8671.589102
174.176204,382.851616,-880.558717,-10547.562021
174.178754,-478.564520,-114.855485,-10490.134278
174.181305,1359.123237,-133.998066,-10088.140082
174.183855,38.285162,440.279358,-9494.720077
174.186405,2603.390989,689.132909,-9724.431046
174.188956,210.568389,-172.283227,-10700.702667
174.191506,363.709035,842.273555,-9590.432981
174.194056,287.138712,363.709035,-9379.864592
174.196607,765.703232,574.277424,-10260.423309
174.199157,114.855485,995.414202,-10049.854920
174.201707,-210.568389,-38.285162,-9705.288466
174.204258,478.564520,1167.697429,-9284.151688
174.206808,1646.261949,-937.986459,-10164.710405
174.209358,2029.113565,-1646.261949,-9915.856854
174.211908,0.000000,382.851616,-9801.001370
174.214459,765.703232,95.712904,-10394.421374
174.217009,-727.418070,267.996131,-9647.860723
174.219559,5627.918755,-612.562586,-9915.856854
174.222110,-76.570323,-1378.265818,-11064.411702
174.224660,-325.423874,-631.705166,-8901.300072
174.227210,-5474.778109,3617.947771,-8652.446522
174.229761,2584.248408,1378.265818,-9801.001370
174.232311,3005.385186,-2928.814862,-10987.841379
174.234848,-2947.957443,2143.969050,-9150.153622
174.237384,-1837.687757,1895.115499,-9054.440718
174.239921,-2986.242605,-574.277424,-9667.003304
174.242458,2699.103893,1722.832272,-9265.009107
174.244994,459.421939,784.845813,-10987.841379
174.247531,-2507.678085,1359.123237,-9877.571693
174.250067,-631.705166,2316.252277,-9207.581365
174.252604,-497.707101,689.132909,-10719.845248
174.255141,995.414202,1473.978722,-9379.864592
174.257677,-19.142581,-172.283227,-10451.849117
174.260214,-650.847747,1914.258080,-10183.852986
174.262751,-95.712904,861.416136,-10336.993632
174.265287,-1263.410333,2641.676150,-9207.581365
174.267824,-1263.410333,3024.527766,-9839.286531
174.270360,880.558717,976.271621,-10566.704602
174.272897,401.994197,593.420005,-10049.854920
174.275434,-918.843878,1895.115499,-10183.852986
174.277970,1684.547110,3024.527766,-9379.864592
174.280507,-2029.113565,-76.570323,-10777.272990
174.283043,1320.838075,535.992262,-9265.009107
174.285580,1186.840010,-2124.826469,-10509.276859
174.288117,2565.105827,-574.277424,-10892.128475
174.290653,-1244.267752,2622.533570,-10183.852986
174.293190,-210.568389,-1895.115499,-9973.284597
174.295727,1014.556782,-210.568389,-9131.011042
174.298263,133.998066,-95.712904,-10356.136213
174.300800,2009.970984,421.136778,-9667.003304
174.303336,976.271621,-287.138712,-9801.001370
174.305873,574.277424,229.710970,-10222.138147
174.308410,1263.410333,210.568389,-9877.571693
174.310946,-765.703232,-210.568389,-10126.425243
174.313483,880.558717,880.558717,-9705.288466
174.316020,746.560651,-612.562586,-10126.425243
174.318556,574.277424,1186.840010,-9399.007173
174.321093,1607.976787,-421.136778,-10470.991698
174.323629,2048.256146,-880.558717,-10336.993632
174.326166,2086.541307,-1703.689691,-10547.562021
174.328703,-784.845813,650.847747,-10011.569758
174.331239,-995.414202,516.849682,-9724.431046
174.333776,4383.651003,-765.703232,-9513.862658
174.336318,-267.996131,-1339.980656,-10509.276859
174.338860,421.136778,918.843878,-9437.292334
174.341401,-5379.065205,4000.799387,-10202.995566
174.343943,1990.828403,1167.697429,-10968.698798
174.346485,3426.521963,2182.254211,-9150.153622
174.349027,2086.541307,-1933.400661,-10068.997501
174.351569,-1263.410333,2813.959378,-9533.005238
174.354111,-2775.674216,842.273555,-9533.005238
174.356652,2526.820666,1799.402595,-9571.290400
174.359194,1378.265818,-153.140646,-10987.841379
174.361736,-3847.658741,1837.687757,-9169.296203
174.364278,114.855485,2201.396792,-9188.438784
174.366820,172.283227,459.421939,-10681.560086
174.369362,-708.275490,1627.119368,-9686.145885
174.371903,-516.849682,574.277424,-10011.569758
174.374445,-267.996131,1473.978722,-10470.991698
174.376987,325.423874,1588.834206,-10375.278794
174.379529,-2277.967115,2488.535504,-9647.860723
174.382071,-267.996131,2411.965181,-9992.427178
174.384613,-746.560651,1033.699363,-9896.714274
174.387154,1225.125171,248.853550,-9896.714274
174.389696,57.427742,1454.836141,-9858.429112
174.392238,382.851616,2143.969050,-9667.003304
174.394780,-1588.834206,-38.285162,-10662.417506
174.397322,1952.543242,-248.853550,-9016.155557
174.399864,765.703232,-3560.520029,-10585.847182
174.402405,4632.504554,382.851616,-10375.278794
174.404947,-267.996131,2239.681954,-9877.571693
174.407489,191.425808,-2239.681954,-9724.431046
174.410031,1186.840010,76.570323,-9207.581365
174.412573,1359.123237,95.712904,-10145.567824
174.415115,3043.670347,0.000000,-9839.286531
174.417656,631.705166,-708.275490,-10222.138147
174.420198,19.142581,133.998066,-9839.286531
174.422740,1225.125171,191.425808,-8901.300072
174.425282,229.710970,248.853550,-9590.432981
174.427824,880.558717,344.566454,-10145.567824
174.430366,440.279358,76.570323,-9896.714274
174.432907,1205.982590,1397.408398,-9379.864592
174.435449,1569.691626,-995.414202,-10643.274925
174.437996,1646.261949,-478.564520,-10107.282662
174.440542,1550.549045,-153.140646,-10011.569758
174.443089,-287.138712,133.998066,-10011.569758
174.445635,-459.421939,229.710970,-9533.005238
174.448182,5417.350366,-38.285162,-9896.714274
174.450729,-133.998066,-344.566454,-11657.831707
174.453275,555.134843,344.566454,-9839.286531
174.455822,-5647.061336,4115.654872,-8537.591037
174.458368,2277.967115,2143.969050,-10049.854920
174.460915,3024.527766,-2411.965181,-11064.411702
174.463461,-2813.959378,2048.256146,-9475.577496
174.466008,-1454.836141,2679.961312,-8977.870395
174.468554,-4173.082614,-153.140646,-9762.716208
174.471101,2392.822600,1780.260014,-9284.151688
174.473648,-114.855485,937.986459,-10643.274925
174.476194,-2373.680019,842.273555,-10222.138147
174.478741,287.138712,1799.402595,-9111.868461
174.481287,-401.994197,-306.281293,-10700.702667
174.483834,555.134843,1397.408398,-9169.296203
174.486380,38.285162,114.855485,-9820.143950
174.488927,-478.564520,401.994197,-10509.276859
174.491474,-1550.549045,1780.260014,-9456.434915
174.494020,-746.560651,1378.265818,-9284.151688
174.496567,-1627.119368,2603.390989,-9131.011042
174.499113,172.283227,-267.996131,-10317.851051
174.501660,-1473.978722,669.990328,-9494.720077
174.504206,2794.816797,2048.256146,-9628.718142
174.506753,-2584.248408,899.701298,-10356.136213
174.509299,-1416.550979,593.420005,-9992.427178
174.511846,2450.250342,-2067.398726,-10202.995566
174.514393,0.000000,-2335.394858,-11581.261384
174.516939,2009.970984,3407.379382,-8403.592971
174.519486,-421.136778,-133.998066,-9781.858789
174.522032,-1205.982590,57.427742,-10049.854920
174.524579,497.707101,-1263.410333,-10490.134278
174.527125,229.710970,1110.269686,-8767.302006
174.529672,1837.687757,535.992262,-9877.571693
174.532219,-669.990328,248.853550,-11064.411702
174.534765,1033.699363,823.130974,-9590.432981
174.537312,516.849682,382.851616,-9073.583299
174.539862,363.709035,382.851616,-10183.852986
174.542413,-555.134843,861.416136,-9877.571693
174.544964,1339.980656,287.138712,-9341.579430
174.547514,2067.398726,210.568389,-9590.432981
174.550065,1033.699363,-803.988394,-10183.852986
174.552616,1933.400661,-172.283227,-9667.003304
174.555167,-248.853550,210.568389,-10222.138147
174.557717,421.136778,229.710970,-9934.999435
174.560268,3541.377448,631.705166,-9533.005238
174.562819,937.986459,-1378.265818,-11083.554283
174.565369,-248.853550,669.990328,-10011.569758
174.567920,-5187.639397,3024.527766,-9188.438784
174.570471,1607.976787,1129.412267,-8882.157491
174.573022,3101.098090,-2105.683888,-10490.134278
174.575572,-1282.552914,1473.978722,-10375.278794
174.578123,-2163.111630,2067.398726,-9360.722011
174.580674,-1435.693560,421.136778,-10202.995566
174.583224,1990.828403,1320.838075,-9724.431046
174.585775,-401.994197,746.560651,-10183.852986
174.588326,-1588.834206,1071.984525,-9915.856854
174.590877,344.566454,1722.832272,-9647.860723
174.593427,-995.414202,133.998066,-10566.704602
174.595978,1225.125171,1493.121302,-9188.438784
174.598529,95.712904,325.423874,-10413.563955
174.601079,287.138712,1301.695494,-10432.706536
174.603630,-1569.691626,2354.537438,-9628.718142
174.606181,-516.849682,1914.258080,-9303.294269
174.608732,-440.279358,2220.539373,-9858.429112
174.611282,-1512.263883,574.277424,-10011.569758
174.613833,-421.136778,1205.982590,-9150.153622
174.616384,861.416136,2258.824534,-9322.436850
174.618934,-2813.959378,-172.283227,-10758.130410
174.621485,2067.398726,1205.982590,-8365.307810
174.624036,1167.697429,-3177.668413,-10987.841379
174.626587,4287.938099,1071.984525,-11255.837510
174.629137,-401.994197,2163.111630,-9954.142016
174.631688,344.566454,-1339.980656,-8729.016845
174.634239,382.851616,172.283227,-9896.714274
174.636789,421.136778,-153.140646,-11389.835576
174.639340,2143.969050,478.564520,-9360.722011
174.641891,727.418070,-421.136778,-10164.710405
174.644442,-497.707101,899.701298,-10126.425243
174.646992,918.843878,95.712904,-9494.720077
174.649543,287.138712,306.281293,-9667.003304
174.652094,287.138712,478.564520,-10528.419440
174.654644,-287.138712,191.425808,-9724.431046
174.657195,1301.695494,1052.841944,-9188.438784
174.659746,1761.117434,-842.273555,-10528.419440
174.662300,1205.982590,-1359.123237,-10202.995566
174.664854,-344.566454,287.138712,-9226.723946
174.667408,-114.855485,631.705166,-10279.565890
174.669962,1818.545176,574.277424,-10011.569758
174.672516,957.129040,-1531.406464,-9628.718142
174.675070,2048.256146,-325.423874,-9647.860723
174.677624,-2679.961312,2737.389054,-10949.556218
174.680178,-3177.668413,1397.408398,-10222.138147
174.682732,3732.803256,1952.543242,-8748.159426
174.685286,-76.570323,-2297.109696,-12078.968485
174.687840,-1473.978722,2622.533570,-9188.438784
174.690394,-2469.392923,2277.967115,-8920.442653
174.692948,1320.838075,1052.841944,-10528.419440
174.695502,1971.685822,1225.125171,-11179.267187
174.698056,-1244.267752,1205.982590,-9533.005238
174.700610,-535.992262,1627.119368,-9284.151688
174.703164,459.421939,38.285162,-10930.413637
174.705718,-325.423874,1301.695494,-10030.712339
174.708272,-191.425808,267.996131,-9628.718142
174.710826,-1780.260014,1895.115499,-9954.142016
174.713380,-153.140646,2469.392923,-10375.278794
174.715934,-1473.978722,1454.836141,-9437.292334
174.718488,-899.701298,2584.248408,-9475.577496
174.721042,-191.425808,535.992262,-10892.128475
174.723596,-535.992262,765.703232,-9954.142016
174.726150,2392.822600,3273.381317,-8786.444587
174.728704,-1761.117434,19.142581,-11408.978157
174.731258,-1454.836141,2182.254211,-9590.432981
174.733812,2029.113565,-2124.826469,-9131.011042
174.736366,-669.990328,-2163.111630,-10470.991698
174.738920,3235.096155,3081.955509,-9207.581365
174.741474,306.281293,-1052.841944,-8977.870395
174.744031,555.134843,172.283227,-10164.710405
174.746588,918.843878,-727.418070,-11657.831707
174.749145,1550.549045,-440.279358,-9303.294269
174.751701,2411.965181,976.271621,-8690.731683
174.754258,-708.275490,-1014.556782,-11638.689126
174.756815,1320.838075,76.570323,-9705.288466
174.759372,-153.140646,574.277424,-8843.872330
174.761929,1129.412267,19.142581,-10604.989763
174.764486,631.705166,287.138712,-10222.138147
174.767043,1110.269686,267.996131,-8863.014910
174.769600,2297.109696,-363.709035,-9954.142016
174.772157,1378.265818,-2354.537438,-11351.550414
174.774714,1071.984525,-172.283227,-9379.864592
174.777271,38.285162,765.703232,-9858.429112
174.779828,2086.541307,555.134843,-10528.419440
174.782385,363.709035,-1014.556782,-10011.569758
174.784942,2239.681954,95.712904,-9150.153622
174.787499,-4785.645200,1895.115499,-11083.554283
174.790056,-2143.969050,2335.394858,-9973.284597
174.792612,2813.959378,4115.654872,-7829.315547
174.795169,1875.972918,-3522.234867,-12155.538808
174.797726,-1416.550979,2009.970984,-9915.856854
174.800283,-2086.541307,3330.809059,-8920.442653
174.802840,2239.681954,1148.554848,-10068.997501
174.805397,650.847747,516.849682,-11294.122672
174.807954,-2220.539373,1473.978722,-9016.155557
174.810511,-689.132909,1703.689691,-9131.011042
174.813068,-1071.984525,459.421939,-10566.704602
174.815625,-267.996131,937.986459,-10126.425243
174.818182,861.416136,861.416136,-9379.864592
174.820739,-1071.984525,1205.982590,-9896.714274
174.823296,-1167.697429,1971.685822,-10317.851051
174.825853,-746.560651,2297.109696,-9092.725880
174.828410,-784.845813,2852.244539,-9533.005238
174.830967,-823.130974,497.707101,-10604.989763
174.833524,-2067.398726,612.562586,-9915.856854
174.836080,2029.113565,3464.807125,-8231.309744
174.838637,-2469.392923,-631.705166,-11734.402030
174.841194,-842.273555,2603.390989,-9073.583299
174.843751,-497.707101,-3254.238736,-9399.007173
174.846311,4996.213589,-38.285162,-11064.411702
174.848870,-478.564520,2258.824534,-10738.987829
174.851429,669.990328,-1110.269686,-8633.303941
174.853988,727.418070,803.988394,-9628.718142
174.856548,401.994197,-861.416136,-12117.253646
174.859107,1512.263883,172.283227,-9245.866526
174.861666,1110.269686,1071.984525,-8690.731683
174.864226,229.710970,-248.853550,-10738.987829
174.866785,1186.840010,344.566454,-9284.151688
174.869344,-325.423874,382.851616,-9188.438784
174.871904,153.140646,1071.984525,-10470.991698
174.874463,497.707101,-153.140646,-10394.421374
174.877022,631.705166,153.140646,-8499.305875
174.879581,2105.683888,-899.701298,-10068.997501
174.882141,1378.265818,-1263.410333,-11389.835576
174.884700,-267.996131,133.998066,-9054.440718
174.887259,440.279358,497.707101,-9475.577496
174.889819,3426.521963,1646.261949,-10547.562021
174.892378,1741.974853,-1473.978722,-11562.118803
174.894937,1933.400661,-2143.969050,-9131.011042
174.897497,-5168.496816,4077.369710,-9073.583299
174.900056,2067.398726,3158.525832,-10375.278794
174.902615,3062.812928,-899.701298,-9915.856854
174.905175,-2469.392923,2373.680019,-9552.147819
174.907734,-1933.400661,1895.115499,-10164.710405
174.910293,-2488.535504,689.132909,-8997.012976
174.912852,1914.258080,1914.258080,-9188.438784
174.915412,-210.568389,1033.699363,-11255.837510
174.917971,-1454.836141,363.709035,-10107.282662
174.920530,727.418070,2105.683888,-8575.876198
174.923090,497.707101,-363.709035,-11140.982026
174.925649,1473.978722,957.129040,-9188.438784
174.928208,-1014.556782,1129.412267,-9552.147819
174.930768,133.998066,1033.699363,-11351.550414
174.933327,-1875.972918,2411.965181,-9724.431046
174.935886,-478.564520,2335.394858,-8709.874264
174.938445,823.130974,1339.980656,-9705.288466
174.941005,-1473.978722,229.710970,-10892.128475
174.943564,3005.385186,2507.678085,-8346.165229
174.946123,-2163.111630,114.855485,-10681.560086
174.948685,-1091.127106,2737.389054,-10068.997501
174.951247,3579.662610,-2565.105827,-9360.722011
174.953808,-114.855485,-3369.094221,-10566.704602
174.956370,2297.109696,3656.232933,-8709.874264
174.958931,-1091.127106,-325.423874,-10107.282662
174.961493,-229.710970,440.279358,-9016.155557
174.964055,133.998066,-1703.689691,-11696.116869
174.966616,1205.982590,574.277424,-9628.718142
174.969178,2526.820666,574.277424,-8997.012976
174.971739,-363.709035,-421.136778,-11217.552349
174.974301,2201.396792,535.992262,-9992.427178
174.976863,-784.845813,57.427742,-9284.151688
174.979424,957.129040,976.271621,-9513.862658
174.981986,-803.988394,-555.134843,-10930.413637
174.984547,287.138712,497.707101,-8652.446522
174.987109,1397.408398,-746.560651,-9628.718142
174.989670,76.570323,-1531.406464,-10834.700733
174.992232,191.425808,-229.710970,-9341.579430
174.994794,880.558717,248.853550,-9092.725880
174.997355,1990.828403,1033.699363,-9896.714274
174.999917,574.277424,-1301.695494,-11504.691061
175.002478,-765.703232,-1129.412267,-9188.438784
175.005040,-5091.926493,3426.521963,-8556.733618
175.007602,861.416136,4383.651003,-9686.145885
175.010163,2488.535504,-2354.537438,-10911.271056
175.012725,-2067.398726,2584.248408,-9513.862658
175.015286,-2852.244539,2086.541307,-10260.423309
175.017848,-1512.263883,976.271621,-9533.005238
175.020410,1741.974853,746.560651,-9590.432981
175.022971,-1818.545176,1761.117434,-10490.134278
175.025533,-1684.547110,765.703232,-10126.425243
175.028094,0.000000,2488.535504,-8499.305875
175.030656,-325.423874,-76.570323,-11351.550414
175.033218,1416.550979,861.416136,-9724.431046
175.035779,-2565.105827,1225.125171,-9226.723946
175.038341,-401.994197,1129.412267,-10528.419440
175.040902,-1531.406464,2833.101958,-9858.429112
175.043464,421.136778,1971.685822,-9590.432981
175.046026,-1416.550979,1875.972918,-10068.997501
175.048587,-669.990328,133.998066,-10815.558152
175.051151,1205.982590,2833.101958,-8461.020714
175.053714,-1359.123237,689.132909,-10432.706536
175.056278,631.705166,1435.693560,-9035.298138
175.058842,727.418070,-4689.932296,-10470.991698
175.061405,4670.789715,-344.566454,-10394.421374
175.063969,-497.707101,2641.676150,-10298.708470
175.066533,-727.418070,-650.847747,-9399.007173
175.069096,1339.980656,-95.712904,-8882.157491
175.071660,-38.285162,-306.281293,-11255.837510
175.074224,2335.394858,516.849682,-10375.278794
175.076787,1186.840010,-631.705166,-9820.143950
175.079351,114.855485,516.849682,-10451.849117
175.081915,937.986459,593.420005,-10126.425243
175.084478,-210.568389,267.996131,-9647.860723
175.087042,574.277424,976.271621,-9839.286531
175.089606,689.132909,-76.570323,-10241.280728
175.092169,1359.123237,-38.285162,-9284.151688
175.094733,1741.974853,-1014.556782,-10049.854920
175.097297,918.843878,-133.998066,-10566.704602
175.099860,478.564520,746.560651,-9743.573627
175.102424,2143.969050,-95.712904,-9667.003304
175.104987,95.712904,-650.847747,-9781.858789
175.107551,2029.113565,363.709035,-9360.722011
175.110115,-3426.521963,1454.836141,-10279.565890
175.112678,-3694.518094,1397.408398,-10222.138147
175.115242,3560.520029,1875.972918,-9475.577496
175.117806,516.849682,-2086.541307,-11370.692995
175.120369,-57.427742,1665.404530,-9896.714274
175.122933,-4115.654872,2890.529701,-9494.720077
175.125497,1607.976787,1110.269686,-9686.145885
175.128060,1473.978722,19.142581,-10777.272990
175.130624,-2124.826469,1895.115499,-9609.575562
175.133188,-76.570323,1339.980656,-9743.573627
175.135751,-306.281293,-459.421939,-10930.413637
175.138315,-708.275490,1493.121302,-9915.856854
175.140879,-210.568389,344.566454,-9705.288466
175.143442,-784.845813,708.275490,-9513.862658
175.146006,-1493.121302,2565.105827,-9839.286531
175.148569,-1033.699363,2182.254211,-9915.856854
175.151133,1148.554848,1761.117434,-9379.864592
175.153697,-1512.263883,650.847747,-10509.276859
175.156260,2986.242605,1741.974853,-8977.870395
175.158824,-2565.105827,-19.142581,-9954.142016
175.161388,-459.421939,2431.107762,-9513.862658
175.163951,3503.092286,-2431.107762,-10241.280728
175.166515,-1110.269686,-2182.254211,-10490.134278
175.169079,3464.807125,3081.955509,-8671.589102
175.171642,-287.138712,-593.420005,-10490.134278
175.174207,-421.136778,114.855485,-9513.862658
175.176773,-229.710970,-1397.408398,-10758.130410
175.179338,1512.263883,325.423874,-9341.579430
175.181903,1914.258080,555.134843,-8977.870395
175.184468,-1033.699363,-669.990328,-10911.271056
175.187033,1799.402595,995.414202,-10068.997501
175.189598,-133.998066,229.710970,-9552.147819
175.192163,995.414202,574.277424,-9533.005238
175.194728,727.418070,114.855485,-10088.140082
175.197293,1761.117434,-76.570323,-9743.573627
175.199859,1167.697429,-325.423874,-10088.140082
175.202424,1703.689691,-1148.554848,-10834.700733
175.204989,-1014.556782,1320.838075,-9762.716208
175.207554,1818.545176,172.283227,-9303.294269
175.210119,-1416.550979,-210.568389,-9609.575562
175.212684,2220.539373,-363.709035,-10222.138147
175.215249,-4326.223261,3235.096155,-10279.565890
175.217814,-363.709035,2737.389054,-10738.987829
175.220379,842.273555,3943.371645,-8346.165229
175.222944,2086.541307,-2545.963246,-11447.263318
175.225510,-1148.554848,1627.119368,-9724.431046
175.228075,-2947.957443,2488.535504,-9743.573627
175.230640,593.420005,1914.258080,-9609.575562
175.233205,2201.396792,-727.418070,-10930.413637
175.235770,-2220.539373,1952.543242,-9284.151688
175.238335,267.996131,957.129040,-9801.001370
175.240900,401.994197,-344.566454,-10394.421374
175.243465,-1416.550979,1703.689691,-9456.434915
175.246030,-57.427742,401.994197,-9954.142016
175.248596,-765.703232,593.420005,-9896.714274
175.251161,-1244.267752,2105.683888,-9954.142016
175.253726,-1205.982590,2277.967115,-9743.573627
175.256293,95.712904,1244.267752,-9647.860723
175.258859,-3273.381317,995.414202,-9992.427178
175.261426,3483.949706,765.703232,-9207.581365
175.263993,-3081.955509,880.558717,-9858.429112
175.266559,593.420005,2105.683888,-9571.290400
175.269126,1205.982590,-2354.537438,-10528.419440
175.271693,1588.834206,-2565.105827,-10796.415571
175.274259,1416.550979,2928.814862,-8441.878133
175.276826,153.140646,-459.421939,-8997.012976
175.279393,478.564520,440.279358,-9245.866526
175.281959,1071.984525,-1646.261949,-11504.691061
175.284526,1148.554848,516.849682,-9705.288466
175.287093,1052.841944,382.851616,-9054.440718
175.289659,191.425808,-363.709035,-10451.849117
175.292226,1225.125171,823.130974,-10222.138147
175.294793,401.994197,133.998066,-9858.429112
175.297359,2105.683888,382.851616,-9686.145885
175.299926,-574.277424,1129.412267,-10011.569758
175.302493,2143.969050,-267.996131,-10241.280728
175.305059,1703.689691,-1052.841944,-10030.712339
175.307626,689.132909,-1071.984525,-10145.567824
175.310193,1033.699363,-421.136778,-9571.290400
175.312759,2909.672282,842.273555,-9533.005238
175.315326,363.709035,-880.558717,-10509.276859
175.317893,497.707101,-2029.113565,-9054.440718
175.320459,-6202.196179,4211.367776,-8614.161360
175.323026,689.132909,2277.967115,-9667.003304
175.325593,2086.541307,-344.566454,-9820.143950
175.328159,708.275490,689.132909,-10202.995566
175.330726,-1607.976787,976.271621,-10356.136213
175.333293,-3139.383251,1320.838075,-9322.436850
175.335859,727.418070,2163.111630,-9054.440718
175.338426,823.130974,210.568389,-10987.841379
175.340993,-1703.689691,669.990328,-10068.997501
175.343559,880.558717,1052.841944,-8977.870395
175.346126,-229.710970,-306.281293,-10681.560086
175.348693,-114.855485,1990.828403,-9743.573627
175.351259,-325.423874,-76.570323,-10126.425243
175.353826,-1244.267752,1512.263883,-9762.716208
175.356393,-1129.412267,2335.394858,-9743.573627
175.358961,708.275490,1799.402595,-9475.577496
175.361529,-1263.410333,1301.695494,-10145.567824
175.364097,3311.666478,880.558717,-10260.423309
175.366665,-1646.261949,1627.119368,-9628.718142
175.369233,-1722.832272,1148.554848,-10222.138147
175.371801,3177.668413,-880.558717,-8824.729749
175.374369,-708.275490,-3981.656806,-10681.560086
175.376937,7503.891674,1875.972918,-9456.434915
175.379505,-1454.836141,114.855485,-10968.698798
175.382073,-631.705166,382.851616,-9858.429112
175.384641,2182.254211,-669.990328,-9705.288466
175.387209,880.558717,535.992262,-10049.854920
175.389777,2086.541307,440.279358,-9494.720077
175.392345,-593.420005,-248.853550,-10758.130410
175.394913,1110.269686,1129.412267,-9934.999435
175.397481,229.710970,153.140646,-9513.862658
175.400049,1244.267752,535.992262,-9915.856854
175.402617,325.423874,344.566454,-9915.856854
175.405185,1416.550979,-459.421939,-10107.282662
175.407753,1359.123237,-76.570323,-9647.860723
175.410321,1435.693560,-1588.834206,-10202.995566
175.412889,-153.140646,459.421939,-9590.432981
175.415457,3981.656806,1129.412267,-9801.001370
175.418025,-1646.261949,-1301.695494,-10930.413637
175.420593,2890.529701,-803.988394,-8767.302006
175.423161,-4862.215523,3101.098090,-9934.999435
175.425729,555.134843,1971.685822,-10604.989763
175.428297,1646.261949,2718.246474,-9322.436850
175.430865,-842.273555,401.994197,-10317.851051
175.433433,-1531.406464,1416.550979,-9896.714274
175.436001,-2450.250342,1550.549045,-9245.866526
175.438569,2297.109696,1895.115499,-9686.145885
175.441137,918.843878,-267.996131,-11523.833642
175.443705,-2009.970984,1512.263883,-9781.858789
175.446273,-153.140646,1148.554848,-9226.723946
175.448841,401.994197,382.851616,-10356.136213
175.451409,516.849682,918.843878,-9781.858789
175.453977,-823.130974,1148.554848,-9475.577496
175.456545,-708.275490,1473.978722,-10126.425243
175.459113,-669.990328,1761.117434,-10164.710405
175.461682,-1091.127106,2699.103893,-9399.007173
175.464251,57.427742,1052.841944,-9915.856854
175.466819,1550.549045,1110.269686,-10260.423309
175.469388,-631.705166,2009.970984,-9915.856854
175.471957,-1588.834206,2947.957443,-9533.005238
175.474526,3254.238736,-1473.978722,-9858.429112
175.477094,-727.418070,-3790.230998,-11121.839445
175.479663,4689.932296,3196.810994,-8250.452325
175.482232,-1244.267752,937.986459,-10719.845248
175.484801,-1263.410333,382.851616,-9954.142016
175.487369,1339.980656,-976.271621,-9839.286531
175.489938,401.994197,880.558717,-9513.862658
175.492507,2029.113565,210.568389,-9475.577496
175.495076,-1033.699363,-708.275490,-10643.274925
175.497645,1301.695494,803.988394,-9724.431046
175.500213,535.992262,114.855485,-9667.003304
175.502782,842.273555,229.710970,-9399.007173
175.505351,574.277424,191.425808,-10241.280728
175.507920,574.277424,-191.425808,-10107.282662
175.510488,1780.260014,-631.705166,-9667.003304
175.513057,2335.394858,-1531.406464,-10336.993632
175.515626,210.568389,248.853550,-9303.294269
175.518195,4173.082614,1014.556782,-9418.149754
175.520763,-363.709035,-1550.549045,-11753.544611
175.523332,1818.545176,-1741.974853,-9207.581365
175.525901,-5225.924558,3273.381317,-8499.305875
175.528470,-76.570323,3924.229064,-9494.720077
175.531038,2258.824534,229.710970,-11083.554283
175.533607,-1454.836141,1818.545176,-9686.145885
175.536176,-1799.402595,1875.972918,-10164.710405
175.538745,-2316.252277,861.416136,-9915.856854
175.541313,2526.820666,1933.400661,-9054.440718
175.543882,-57.427742,1052.841944,-10911.271056
175.546451,-1435.693560,593.420005,-10145.567824
175.549020,172.283227,1607.976787,-9188.438784
175.551588,210.568389,-478.564520,-11160.124606
175.554157,1014.556782,1493.121302,-9322.436850
175.556726,-1339.980656,708.275490,-9934.999435
175.559295,-133.998066,2124.826469,-10126.425243
175.561863,-2297.109696,3120.240670,-10202.995566
175.564433,555.134843,1531.406464,-9705.288466
175.567002,-1244.267752,1244.267752,-10145.567824
175.569572,3560.520029,1339.980656,-9705.288466
175.572141,-3024.527766,1550.549045,-10413.563955
175.574710,1952.543242,2086.541307,-8480.163294
175.577280,-1033.699363,-3732.803256,-10815.558152
175.579849,6087.340694,-1473.978722,-10585.847182
175.582419,-2354.537438,2507.678085,-9437.292334
175.584988,-765.703232,-248.853550,-8882.157491
175.587558,957.129040,306.281293,-8997.012976
175.590127,401.994197,-1684.547110,-11485.548480
175.592696,3235.096155,325.423874,-9743.573627
175.595266,-95.712904,-401.994197,-10145.567824
175.597835,574.277424,555.134843,-9973.284597
175.600405,1033.699363,555.134843,-9896.714274
175.602974,-114.855485,38.285162,-9571.290400
175.605544,976.271621,708.275490,-9934.999435
175.608113,1014.556782,95.712904,-9954.142016
175.610683,1014.556782,-401.994197,-9992.427178
175.613252,2373.680019,-2067.398726,-10777.272990
175.615821,803.988394,-861.416136,-10222.138147
175.618391,4996.213589,842.273555,-9418.149754
175.620960,-1722.832272,-421.136778,-11121.839445
175.623530,4479.363907,-19.142581,-9973.284597
175.626099,-3694.518094,3579.662610,-11006.983960
175.628669,689.132909,1818.545176,-10853.843314
175.631238,1167.697429,4153.940034,-8365.307810
175.633807,497.707101,-1014.556782,-10987.841379
175.636377,-593.420005,1320.838075,-9667.003304
175.638946,-2890.529701,2277.967115,-9437.292334
175.641516,1282.552914,2163.111630,-9475.577496
175.644085,191.425808,-344.566454,-11217.552349
175.646655,-1473.978722,1339.980656,-9150.153622
175.649224,-344.566454,1416.550979,-9475.577496
175.651793,267.996131,555.134843,-10394.421374
175.654363,1129.412267,1186.840010,-10432.706536
175.656932,-1014.556782,344.566454,-9915.856854
175.659502,-593.420005,1397.408398,-9475.577496
175.662071,-172.283227,2163.111630,-10260.423309
175.664641,-1186.840010,2737.389054,-9437.292334
175.667211,306.281293,229.710970,-10011.569758
175.669781,2220.539373,1282.552914,-9571.290400
175.672351,-2067.398726,555.134843,-10394.421374
175.674921,114.855485,3311.666478,-8671.589102
175.677491,1244.267752,-2813.959378,-10356.136213
175.680061,3407.379382,-2718.246474,-11274.980091
175.682631,880.558717,2813.959378,-8805.587168
175.685201,-918.843878,1359.123237,-9456.434915
175.687771,-421.136778,823.130974,-9820.143950
175.690341,459.421939,-1627.119368,-11006.983960
175.692911,0.000000,842.273555,-8518.448456
175.695481,918.843878,440.279358,-9590.432981
175.698051,708.275490,-516.849682,-10872.985894
175.700621,727.418070,1033.699363,-9820.143950
175.703191,191.425808,689.132909,-9667.003304
175.705761,1684.547110,133.998066,-10260.423309
175.708331,-478.564520,248.853550,-9475.577496
175.710901,1512.263883,-478.564520,-9839.286531
175.713471,1493.121302,-555.134843,-10394.421374
175.716041,535.992262,-1071.984525,-10528.419440
175.718611,3732.803256,1071.984525,-9360.722011
175.721181,-631.705166,-1186.840010,-10356.136213
175.723751,2756.531635,-612.562586,-9762.716208
175.726321,-2297.109696,1416.550979,-11083.554283
175.728892,-823.130974,3062.812928,-10394.421374
175.731462,2794.816797,4843.072942,-8671.589102
175.734032,1282.552914,-3598.805190,-12366.107197
175.736602,-267.996131,1818.545176,-9533.005238
175.739172,-3043.670347,2507.678085,-9360.722011
175.741742,306.281293,2258.824534,-9705.288466
175.744312,363.709035,-497.707101,-11026.126541
175.746882,-2201.396792,1301.695494,-8767.302006
175.749452,19.142581,1416.550979,-9016.155557
175.752022,95.712904,459.421939,-10528.419440
175.754592,-248.853550,1205.982590,-10279.565890
175.757162,-995.414202,593.420005,-9934.999435
175.759732,-899.701298,1933.400661,-9743.573627
175.762302,-1780.260014,2794.816797,-9973.284597
175.764872,-1033.699363,1780.260014,-9513.862658
175.767442,-612.562586,1167.697429,-9973.284597
175.770012,3330.809059,325.423874,-10030.712339
175.772583,-2411.965181,478.564520,-10451.849117
175.775153,76.570323,3617.947771,-7905.885870
175.777723,210.568389,-5034.498750,-11313.265253
175.780293,5474.778109,-172.283227,-10758.130410
175.782863,-957.129040,2488.535504,-10030.712339
175.785434,-459.421939,-382.851616,-8997.012976
175.788004,1186.840010,248.853550,-9494.720077
175.790574,1110.269686,-1646.261949,-11102.696864
175.793144,1416.550979,861.416136,-8977.870395
175.795714,1091.127106,153.140646,-10279.565890
175.798284,1186.840010,229.710970,-10279.565890
175.800855,861.416136,325.423874,-9379.864592
175.803425,-555.134843,823.130974,-9494.720077
175.805995,1320.838075,191.425808,-10241.280728
175.808565,995.414202,-344.566454,-10222.138147
175.811135,1665.404530,-229.710970,-9762.716208
175.813706,2277.967115,-1856.830338,-10662.417506
175.816276,0.000000,421.136778,-9533.005238
175.818846,1990.828403,2354.537438,-8882.157491
175.821416,267.996131,-2105.683888,-11810.972354
175.823986,1512.263883,-1627.119368,-9571.290400
175.826557,-3349.951640,2431.107762,-8882.157491
175.829127,-19.142581,5264.209720,-7599.604578
175.831697,1320.838075,-3598.805190,-11810.972354
175.834267,-2392.822600,1914.258080,-9284.151688
175.836837,-3043.670347,2009.970984,-9475.577496
175.839408,-2450.250342,1167.697429,-9647.860723
175.841978,1416.550979,1569.691626,-9475.577496
175.844548,-287.138712,880.558717,-10528.419440
175.847118,-535.992262,1493.121302,-10088.140082
175.849688,306.281293,1110.269686,-9934.999435
175.852259,-287.138712,-555.134843,-10624.132344
175.854829,-842.273555,2718.246474,-8575.876198
175.857399,-803.988394,669.990328,-10088.140082
175.859969,-1091.127106,2048.256146,-10451.849117
175.862539,-1129.412267,3024.527766,-9284.151688
175.865110,-1722.832272,1627.119368,-9513.862658
175.867680,3292.523898,918.843878,-9150.153622
175.870250,-2354.537438,172.283227,-10470.991698
175.872821,-229.710970,3656.232933,-8997.012976
175.875391,1933.400661,-2718.246474,-10413.563955
175.877961,-133.998066,-2756.531635,-11026.126541
175.880532,4345.365842,1780.260014,-8327.022648
175.883102,-2029.113565,650.847747,-9590.432981
175.885673,-248.853550,1225.125171,-9992.427178
175.888243,248.853550,-2029.113565,-11064.411702
175.890814,1684.547110,1014.556782,-8920.442653
175.893384,1684.547110,650.847747,-9590.432981
175.895955,-1148.554848,-976.271621,-11274.980091
175.898525,1129.412267,1244.267752,-9207.581365
175.901096,-76.570323,-38.285162,-9552.147819
175.903666,899.701298,535.992262,-9762.716208
175.906237,-784.845813,76.570323,-10049.854920
175.908807,1646.261949,-784.845813,-9858.429112
175.911378,1435.693560,-1531.406464,-10183.852986
175.913948,-497.707101,-382.851616,-10011.569758
175.916519,3637.090352,1416.550979,-8786.444587
175.919089,-1588.834206,-2450.250342,-10892.128475
175.921660,4058.227130,-1531.406464,-9150.153622
175.924230,-4632.504554,2316.252277,-10145.567824
175.926800,1129.412267,3311.666478,-9954.142016
175.929371,1282.552914,-2431.107762,-11236.694930
175.931941,-1761.117434,1052.841944,-9609.575562
175.934512,-1722.832272,1780.260014,-9571.290400
175.937082,-3847.658741,1588.834206,-9284.151688
175.939653,1914.258080,880.558717,-9226.723946
175.942223,-325.423874,440.279358,-10470.991698
175.944794,-1493.121302,1148.554848,-9801.001370
175.947364,38.285162,937.986459,-9265.009107
175.949935,-823.130974,-248.853550,-10643.274925
175.952505,-401.994197,1952.543242,-9131.011042
175.955076,-325.423874,1110.269686,-10279.565890
175.957646,-593.420005,2354.537438,-10183.852986
175.960217,-2029.113565,2756.531635,-9762.716208
175.962787,-535.992262,1416.550979,-9609.575562
175.965358,2565.105827,2029.113565,-9973.284597
175.967928,-1435.693560,-574.277424,-11064.411702
175.970499,-1454.836141,4383.651003,-9150.153622
175.973069,172.283227,-1665.404530,-9820.143950
175.975640,1263.410333,-4039.084549,-11485.548480
175.978211,2660.818731,2584.248408,-8288.737486
175.980781,-1512.263883,114.855485,-9781.858789
175.983352,325.423874,937.986459,-9839.286531
175.985923,1282.552914,-1339.980656,-10987.841379
175.988494,842.273555,899.701298,-9169.296203
175.991065,1493.121302,344.566454,-9131.011042
175.993635,210.568389,-1512.263883,-11006.983960
175.996206,612.562586,1263.410333,-9207.581365
175.998777,-191.425808,210.568389,-9513.862658
176.001348,2392.822600,-191.425808,-10107.282662
176.003919,-229.710970,-363.709035,-9858.429112
176.006489,1761.117434,-555.134843,-9762.716208
176.009060,3177.668413,-1875.972918,-10451.849117
176.011631,823.130974,248.853550,-10547.562021
176.014202,1741.974853,2335.394858,-8690.731683
176.016773,114.855485,-2852.244539,-11121.839445
176.019343,669.990328,-2335.394858,-9934.999435
176.021914,-3503.092286,4173.082614,-8843.872330
176.024485,1033.699363,4326.223261,-9303.294269
176.027056,2354.537438,-1818.545176,-10911.271056
176.029627,-497.707101,421.136778,-9686.145885
176.032197,-2392.822600,1435.693560,-9533.005238
176.034768,-3254.238736,1282.552914,-9226.723946
176.037339,1473.978722,1110.269686,-9360.722011
176.039910,191.425808,1378.265818,-10413.563955
176.042480,-631.705166,899.701298,-10336.993632
176.045051,38.285162,1110.269686,-9437.292334
176.047622,-497.707101,210.568389,-10604.989763
176.050193,57.427742,1397.408398,-9073.583299
176.052764,-1282.552914,937.986459,-9743.573627
176.055334,-1205.982590,2603.390989,-10145.567824
176.057905,-2928.814862,2718.246474,-9494.720077
176.060476,-516.849682,1110.269686,-9494.720077
176.063047,1225.125171,1110.269686,-9686.145885
176.065618,-3177.668413,535.992262,-10547.562021
176.068188,-1071.984525,4709.074877,-8346.165229
176.070759,57.427742,-4575.076811,-10930.413637
176.073330,5589.633594,-593.420005,-11255.837510
176.075901,-784.845813,2105.683888,-9896.714274
176.078472,-1014.556782,1684.547110,-8307.880067
176.081042,842.273555,-95.712904,-10202.995566
176.083613,-191.425808,-2622.533570,-11217.552349
176.086183,1359.123237,918.843878,-8116.454259
176.088754,421.136778,650.847747,-9169.296203
176.091325,937.986459,210.568389,-10681.560086
176.093895,880.558717,650.847747,-9533.005238
176.096466,-172.283227,344.566454,-9456.434915
176.099037,1741.974853,401.994197,-10298.708470
176.101607,440.279358,-880.558717,-10107.282662
176.104178,1895.115499,-555.134843,-9513.862658
176.106749,2316.252277,-1837.687757,-10700.702667
176.109319,1569.691626,344.566454,-9877.571693
176.111890,-1263.410333,-708.275490,-10107.282662
176.114461,1033.699363,-363.709035,-9590.432981
176.117031,-3637.090352,2947.957443,-10834.700733
176.119602,-172.283227,2201.396792,-10279.565890
176.122173,957.129040,4823.930362,-7905.885870
176.124743,2660.818731,-2679.961312,-12155.538808
176.127314,-612.562586,976.271621,-10011.569758
176.129885,-937.986459,2890.529701,-9131.011042
176.132455,574.277424,2220.539373,-9724.431046
176.135026,1186.840010,-784.845813,-11428.120738
176.137597,-1761.117434,1607.976787,-9265.009107
176.140167,248.853550,1952.543242,-9494.720077
176.142738,-153.140646,574.277424,-11026.126541
176.145309,-459.421939,823.130974,-10049.854920
176.147879,-784.845813,1473.978722,-9494.720077
176.150450,-287.138712,1875.972918,-9820.143950
176.153021,-535.992262,3081.955509,-10202.995566
176.155591,-1378.265818,1454.836141,-10068.997501
176.158162,3732.803256,1301.695494,-9705.288466
176.160732,-1148.554848,114.855485,-10758.130410
176.163303,-2297.109696,2852.244539,-9801.001370
176.165874,3388.236802,-363.709035,-8614.161360
176.168444,-1033.699363,-5053.641331,-11983.255581
176.171015,5781.059402,2143.969050,-8767.302006
176.173586,-1378.265818,1225.125171,-9360.722011
176.176156,-1091.127106,823.130974,-9954.142016
176.178727,918.843878,-2871.387120,-11140.982026
176.181298,-267.996131,1397.408398,-8250.452325
176.183868,2718.246474,363.709035,-9399.007173
176.186439,-976.271621,-765.703232,-11274.980091
176.189010,1703.689691,669.990328,-9839.286531
176.191580,-344.566454,133.998066,-9111.868461
176.194151,1320.838075,-267.996131,-9839.286531
176.196722,823.130974,-210.568389,-9877.571693
176.199292,1646.261949,-708.275490,-9781.858789
176.201863,2182.254211,-1435.693560,-10470.991698
176.204433,957.129040,-38.285162,-10145.567824
176.207004,153.140646,727.418070,-8614.161360
176.209574,-76.570323,-1244.267752,-10413.563955
176.212145,-689.132909,363.709035,-10815.558152
176.214715,-421.136778,2565.105827,-10183.852986
176.217285,689.132909,4804.787781,-7752.745224
176.219856,2411.965181,-3445.664544,-12136.396227
176.222426,-2335.394858,1780.260014,-9322.436850
176.224997,-2603.390989,3369.094221,-8729.016845
176.227567,1014.556782,2335.394858,-10432.706536
176.230138,784.845813,-459.421939,-11715.259450
176.232708,-1703.689691,1378.265818,-8901.300072
176.235279,976.271621,650.847747,-9322.436850
176.237849,-1205.982590,1837.687757,-10662.417506
176.240419,-689.132909,995.414202,-11026.126541
176.242990,-325.423874,784.845813,-9896.714274
176.245560,-1914.258080,2852.244539,-8939.585234
176.248131,-1091.127106,2258.824534,-10279.565890
176.250701,-3043.670347,2201.396792,-9647.860723
176.253272,4364.508422,957.129040,-9418.149754
176.255842,-2794.816797,-325.423874,-11064.411702
176.258413,-1588.834206,2947.957443,-8939.585234
176.260983,899.701298,-153.140646,-8365.307810
176.263553,-784.845813,-5130.211654,-12327.822035
176.266124,2986.242605,1761.117434,-8824.729749
176.268694,-1531.406464,1914.258080,-8824.729749
176.271265,650.847747,1167.697429,-10298.708470
176.273835,267.996131,-2967.100024,-11657.831707
176.276406,95.712904,803.988394,-8173.882002
176.278976,2029.113565,555.134843,-9188.438784
176.281547,-1761.117434,-650.847747,-11083.554283
176.284117,1780.260014,1454.836141,-8805.587168
176.286687,229.710970,-382.851616,-9781.858789
176.289258,1569.691626,555.134843,-10260.423309
176.291828,-76.570323,-497.707101,-10049.854920
176.294399,1569.691626,-1684.547110,-9437.292334
176.296969,880.558717,-1282.552914,-9954.142016
176.299540,2048.256146,555.134843,-10049.854920
176.302110,-172.283227,210.568389,-9111.868461
176.304679,1588.834206,-1971.685822,-9456.434915
176.307250,-4383.651003,2928.814862,-10566.704602
176.309820,1091.127106,2507.678085,-10011.569758
176.312391,1091.127106,3541.377448,-7791.030386
176.314961,2277.967115,-2622.533570,-12346.964616
176.317531,-918.843878,497.707101,-10375.278794
176.320102,-2067.398726,3005.385186,-8461.020714
176.322672,593.420005,2373.680019,-9934.999435
176.325243,593.420005,-631.705166,-11504.691061
176.327813,-976.271621,1569.691626,-9150.153622
176.330383,650.847747,2048.256146,-9667.003304
176.332954,-38.285162,-306.281293,-11370.692995
176.335524,-861.416136,2201.396792,-9475.577496
176.338095,114.855485,918.843878,-9954.142016
176.340665,-1550.549045,3675.375514,-9303.294269
176.343235,-1703.689691,2105.683888,-10796.415571
176.345806,1684.547110,1435.693560,-9781.858789
176.348376,1052.841944,1761.117434,-10451.849117
176.350947,-1646.261949,1416.550979,-11294.122672
176.353517,1244.267752,2813.959378,-7714.460062
176.356087,-995.414202,-4364.508422,-10298.708470
176.358658,5761.916821,-2794.816797,-12098.111066
176.361228,-669.990328,2852.244539,-9418.149754
176.363798,-153.140646,937.986459,-8556.733618
176.366369,1990.828403,-497.707101,-10394.421374
176.368939,-95.712904,-765.703232,-11370.692995
176.371510,3081.955509,497.707101,-8863.014910
176.374080,-248.853550,-382.851616,-9839.286531
176.376650,1416.550979,-995.414202,-10758.130410
176.379221,382.851616,631.705166,-8729.016845
176.381791,-325.423874,306.281293,-9590.432981
176.384362,1780.260014,57.427742,-10509.276859
176.386932,669.990328,-899.701298,-10145.567824
176.389502,2756.531635,-765.703232,-9513.862658
176.392073,1435.693560,-248.853550,-10604.989763
176.394643,2526.820666,535.992262,-9724.431046
176.397214,-306.281293,-2335.394858,-10202.995566
176.399784,3196.810994,-1741.974853,-9513.862658
176.402354,-4058.227130,3637.090352,-10279.565890
176.404925,421.136778,3771.088418,-9226.723946
176.407495,1761.117434,-2967.100024,-11772.687192
176.410065,-2086.541307,995.414202,-10126.425243
176.412635,-2239.681954,1856.830338,-9169.296203
176.415205,-2450.250342,2009.970984,-8977.870395
176.417775,650.847747,1014.556782,-10145.567824
176.420345,-153.140646,1282.552914,-10624.132344
176.422915,-248.853550,1435.693560,-9934.999435
176.425485,-497.707101,1856.830338,-9724.431046
176.428055,-650.847747,1071.984525,-10585.847182
176.430625,-267.996131,555.134843,-8939.585234
176.433194,-3235.096155,3139.383251,-9265.009107
176.435764,-593.420005,2431.107762,-10700.702667
176.438334,-3943.371645,1607.976787,-9533.005238
176.440904,3177.668413,1990.828403,-8231.309744
176.443474,-363.709035,-248.853550,-11026.126541
176.446044,-3732.803256,3560.520029,-10624.132344
176.448614,2239.681954,-1799.402595,-9379.864592
176.451184,325.423874,-4766.502619,-12002.398162
176.453754,2526.820666,2909.672282,-8499.305875
176.456324,-95.712904,1071.984525,-9265.009107
176.458894,-1952.543242,2545.963246,-9571.290400
176.461464,995.414202,-3732.803256,-11753.544611
176.464034,-267.996131,459.421939,-8231.309744
176.466604,2316.252277,1014.556782,-8403.592971
176.469174,-1244.267752,-708.275490,-11351.550414
176.471744,2392.822600,153.140646,-9781.858789
176.474314,-1416.550979,-76.570323,-8690.731683
176.476884,1875.972918,555.134843,-9992.427178
176.479454,842.273555,-401.994197,-10834.700733
176.482024,2354.537438,-1703.689691,-9877.571693
176.484594,2124.826469,-574.277424,-9839.286531
176.487164,3675.375514,823.130974,-10796.415571
176.489734,1091.127106,-2182.254211,-10738.987829
176.492303,1493.121302,-3349.951640,-9150.153622
176.494873,-4192.225195,4115.654872,-10183.852986
176.497443,1186.840010,5149.354235,-9915.856854
176.500013,2048.256146,-76.570323,-9341.579430
176.502583,191.425808,-593.420005,-11140.982026
176.505152,172.283227,689.132909,-10911.271056
176.507722,-4000.799387,3675.375514,-8116.454259
176.510292,1435.693560,1646.261949,-8882.157491
176.512862,114.855485,229.710970,-11772.687192
176.515432,-1148.554848,1933.400661,-9475.577496
176.518002,-210.568389,1914.258080,-9188.438784
176.520571,899.701298,-76.570323,-11447.263318
176.523141,-1646.261949,2182.254211,-9456.434915
176.525711,-976.271621,1607.976787,-9647.860723
176.528281,210.568389,2431.107762,-10145.567824
176.530851,-3254.238736,1071.984525,-10202.995566
176.533420,4058.227130,1895.115499,-8116.454259
176.535990,-899.701298,-421.136778,-11313.265253
176.538560,-4153.940034,4766.502619,-10164.710405
176.541130,3790.230998,-976.271621,-8518.448456
176.543700,-1856.830338,-4804.787781,-10834.700733
176.546269,5647.061336,2947.957443,-9724.431046
176.548839,-1416.550979,-172.283227,-10987.841379
176.551409,95.712904,1569.691626,-9226.723946
176.553979,937.986459,-2354.537438,-11964.113000
176.556549,995.414202,899.701298,-9322.436850
176.559119,1435.693560,957.129040,-8786.444587
176.561688,-1416.550979,-133.998066,-11466.405899
176.564258,2392.822600,248.853550,-10624.132344
176.566828,-1033.699363,306.281293,-8039.883936
176.569398,1397.408398,-325.423874,-9628.718142
176.571968,995.414202,-995.414202,-11466.405899
176.574537,2201.396792,-1895.115499,-9839.286531
176.577107,2584.248408,-172.283227,-9494.720077
176.579677,880.558717,1531.406464,-10528.419440
176.582247,708.275490,-1378.265818,-10547.562021
176.584817,727.418070,-1512.263883,-8824.729749
176.587387,-3445.664544,2871.387120,-10585.847182
176.589956,-172.283227,4862.215523,-10279.565890
176.592526,2871.387120,-2029.113565,-9686.145885
176.595096,-1875.972918,842.273555,-10164.710405
176.597665,-574.277424,1435.693560,-10585.847182
176.600235,-1435.693560,1684.547110,-8920.442653
176.602805,689.132909,2641.676150,-8958.727814
176.605374,363.709035,-784.845813,-12021.540742
176.607944,-976.271621,1531.406464,-9686.145885
176.610513,-229.710970,2813.959378,-8709.874264
176.613083,-708.275490,823.130974,-11255.837510
176.615653,-191.425808,1550.549045,-9533.005238
176.618222,-2373.680019,2794.816797,-8212.167163
176.620792,-267.996131,2373.680019,-10336.993632
176.623362,-3062.812928,976.271621,-11160.124606
176.625931,2833.101958,1741.974853,-8384.450390
176.628501,-440.279358,-650.847747,-10279.565890
176.631071,-4594.219392,5091.926493,-9667.003304
176.633640,574.277424,-3560.520029,-9781.858789
176.636210,3790.230998,-4402.793584,-11619.546546
176.638780,306.281293,3120.240670,-9647.860723
176.641349,-287.138712,344.566454,-8480.163294
176.643919,1493.121302,229.710970,-8843.872330
176.646488,-382.851616,-1914.258080,-12442.677520
176.649058,2335.394858,1493.121302,-8997.012976
176.651628,-133.998066,229.710970,-8958.727814
176.654197,153.140646,191.425808,-10738.987829
176.656767,1761.117434,-172.283227,-10528.419440
176.659337,76.570323,133.998066,-8786.444587
176.661906,248.853550,172.283227,-9896.714274
176.664476,1014.556782,-2163.111630,-10585.847182
176.667046,1129.412267,-516.849682,-8709.874264
176.669615,2545.963246,-1110.269686,-9839.286531
176.672185,-1799.402595,-842.273555,-10375.278794
176.674754,1052.841944,803.988394,-8480.163294
176.677324,-2411.965181,-1818.545176,-10872.985894
176.679894,-3771.088418,3235.096155,-9437.292334
176.682463,1091.127106,4957.928427,-8537.591037
176.685033,1684.547110,-3560.520029,-11274.980091
176.687603,-516.849682,899.701298,-9820.143950
176.690172,-2833.101958,3043.670347,-9667.003304
176.692742,1646.261949,2794.816797,-9609.575562
176.695311,248.853550,-842.273555,-11045.269122
176.697881,-38.285162,1148.554848,-9647.860723
176.700450,535.992262,746.560651,-9533.005238
176.703020,-363.709035,727.418070,-10183.852986
176.705589,-516.849682,1703.689691,-10585.847182
176.708159,-1665.404530,1933.400661,-10183.852986
176.710728,-593.420005,2833.101958,-8767.302006
176.713298,-3330.809059,2029.113565,-10088.140082
176.715867,3196.810994,842.273555,-9896.714274
176.718437,-478.564520,1550.549045,-9475.577496
176.721006,-2775.674216,2890.529701,-10738.987829
176.723576,4211.367776,-1895.115499,-9915.856854
176.726145,-2316.252277,-3694.518094,-10528.419440
176.728715,6029.912952,2507.678085,-9073.583299
176.731284,-57.427742,-19.142581,-11466.405899
176.733854,-861.416136,1607.976787,-8958.727814
176.736423,3177.668413,-1454.836141,-10413.563955
176.738993,-38.285162,-114.855485,-10758.130410
176.741562,2029.113565,631.705166,-9265.009107
176.744132,-631.705166,-229.710970,-10930.413637
176.746701,2450.250342,-516.849682,-10758.130410
176.749271,-1129.412267,-153.140646,-8920.442653
176.751840,1856.830338,574.277424,-9150.153622
176.754410,957.129040,-1071.984525,-11064.411702
176.756979,1799.402595,-1359.123237,-10643.274925
176.759549,2679.961312,306.281293,-9131.011042
176.762118,-535.992262,555.134843,-9973.284597
176.764688,1627.119368,19.142581,-9973.284597
176.767257,-3196.810994,-689.132909,-10088.140082
176.769827,-4977.071008,2909.672282,-9341.579430
176.772396,363.709035,5302.494882,-8116.454259
176.774966,210.568389,-1684.547110,-10107.282662
176.777535,-421.136778,650.847747,-9628.718142
176.780105,-3120.240670,1454.836141,-10585.847182
176.782674,-2297.109696,2756.531635,-9552.147819
176.785243,650.847747,1052.841944,-9590.432981
176.787813,-421.136778,1071.984525,-10126.425243
176.790382,459.421939,497.707101,-10413.563955
176.792952,-918.843878,1205.982590,-9418.149754
176.795521,-95.712904,1359.123237,-10547.562021
176.798090,-784.845813,2067.398726,-9934.999435
176.800659,-861.416136,2067.398726,-9207.581365
176.803228,-3292.523898,2373.680019,-10394.421374
176.805798,2622.533570,880.558717,-10030.712339
176.808367,669.990328,535.992262,-9590.432981
176.810936,-3062.812928,2354.537438,-11045.269122
176.813505,3885.943902,421.136778,-8786.444587
176.816074,-2067.398726,-4077.369710,-10394.421374
176.818643,7905.885870,248.853550,-9839.286531
176.821212,-2067.398726,1607.976787,-11198.409768
176.823781,-1205.982590,1244.267752,-9054.440718
176.826350,2890.529701,-1875.972918,-10298.708470
176.828919,-38.285162,440.279358,-10490.134278
176.831488,1703.689691,784.845813,-9475.577496
176.834057,-382.851616,-631.705166,-9858.429112
176.836626,880.558717,784.845813,-9801.001370
176.839195,-689.132909,669.990328,-9207.581365
176.841764,1301.695494,-1493.121302,-9781.858789
176.844333,1186.840010,-823.130974,-10528.419440
176.846902,861.416136,-1186.840010,-10585.847182
176.849471,3005.385186,-574.277424,-9724.431046
176.852040,-1607.976787,631.705166,-9322.436850
176.854609,1167.697429,-1129.412267,-10662.417506
176.857178,-325.423874,-2009.970984,-9762.716208
176.859747,-6451.049730,3828.516160,-8461.020714
176.862316,1167.697429,4211.367776,-9418.149754
176.864885,1569.691626,-3139.383251,-11026.126541
176.867454,-1301.695494,1665.404530,-8958.727814
176.870023,-1684.547110,746.560651,-10738.987829
176.872592,-2143.969050,2105.683888,-9647.860723
176.875161,459.421939,1952.543242,-8441.878133
176.877730,95.712904,593.420005,-10758.130410
176.880299,267.996131,1359.123237,-10375.278794
176.882868,-1148.554848,1167.697429,-9571.290400
176.885437,344.566454,1263.410333,-11064.411702
176.888006,-1761.117434,2277.967115,-9858.429112
176.890575,-95.712904,2622.533570,-9647.860723
176.893144,-2890.529701,2756.531635,-9896.714274
176.895713,2584.248408,880.558717,-10068.997501
176.898282,574.277424,1588.834206,-9667.003304
176.900851,-3349.951640,2239.681954,-11351.550414
176.903420,3483.949706,-95.712904,-8614.161360
176.905988,-861.416136,-3905.086483,-10834.700733
176.908557,5398.207786,2450.250342,-8633.303941
176.911126,-612.562586,172.283227,-11121.839445
176.913695,-1837.687757,1493.121302,-9054.440718
176.916263,2411.965181,-1933.400661,-10011.569758
176.918832,-267.996131,-57.427742,-9896.714274
176.921401,842.273555,708.275490,-9705.288466
176.923970,-746.560651,172.283227,-10241.280728
176.926538,2009.970984,-267.996131,-10394.421374
176.929107,-574.277424,-95.712904,-9073.583299
176.931676,2048.256146,-133.998066,-9207.581365
176.934245,1148.554848,-1148.554848,-10432.706536
176.936813,631.705166,-1129.412267,-10777.272990
176.939382,4058.227130,-842.273555,-9379.864592
176.941951,-1761.117434,-421.136778,-9437.292334
176.944520,1531.406464,-823.130974,-9724.431046
176.947089,-4613.361973,-727.418070,-11121.839445
176.949657,-2488.535504,1990.828403,-9322.436850
176.952226,497.707101,5455.635528,-8039.883936
176.954795,1493.121302,-1665.404530,-10777.272990
176.957364,-114.855485,-363.709035,-9954.142016
176.959932,-4077.369710,2507.678085,-9724.431046
176.962501,363.709035,2545.963246,-10145.567824
